#Wave		#Intensity
1819.710938	1796.450317
1818.746094	1827.557617
1817.781250	1832.341309
1816.816406	1917.448364
1815.851563	1865.217651
1814.886719	1810.419678
1813.920898	1866.991821
1812.955078	1835.517334
1811.989258	1912.765991
1811.023438	1883.883057
1810.056641	1857.599976
1809.090820	1916.686890
1808.124023	1838.686890
1807.157227	1848.627808
1806.189453	1876.658936
1805.222656	1842.652954
1804.254883	1924.933105
1803.287109	1924.513550
1802.319336	1823.369873
1801.350586	1866.868652
1800.382813	1892.277710
1799.414063	1920.256592
1798.445313	1919.838745
1797.475586	1805.906860
1796.506836	1895.789673
1795.537109	1972.739624
1794.567383	1954.263428
1793.597656	1948.683350
1792.627930	2015.263428
1791.657227	1934.953979
1790.686523	1913.926025
1789.715820	1931.538086
1788.745117	1902.795654
1787.774414	1961.590698
1786.802734	1909.690796
1785.831055	1901.556885
1784.859375	1932.015503
1783.887695	1918.736328
1782.915039	1987.750122
1781.942383	1979.606323
1780.969727	1963.755127
1779.997070	1989.027588
1779.024414	1926.934814
1778.050781	2062.657959
1777.077148	1972.326660
1776.103516	2000.142944
1775.129883	2012.545166
1774.155273	1994.144287
1773.181641	1926.999146
1772.207031	2018.935059
1771.232422	1969.767212
1770.256836	1982.162598
1769.282227	1997.116211
1768.306641	2055.636719
1767.331055	2044.942139
1766.355469	2031.690186
1765.378906	2018.443970
1764.403320	1971.911377
1763.426758	1989.408203
1762.450195	2042.734863
1761.473633	2047.412598
1760.496094	2034.177124
1759.518555	2064.436279
1758.541016	2012.838745
1757.563477	2096.787598
1756.585938	2068.213867
1755.607422	2093.327637
1754.628906	2000.881714
1753.650391	2005.560303
1752.671875	2043.442749
1751.693359	2078.755127
1750.713867	2149.797119
1749.734375	2077.859863
1748.754883	2074.860352
1747.775391	2143.305664
1746.794922	2063.763184
1745.815430	2244.401611
1744.834961	2162.321533
1743.853516	2126.165527
1742.873047	2110.415283
1741.891602	2115.058105
1740.911133	2129.889648
1739.929688	2213.488281
1738.947266	2207.919434
1737.965820	2115.786377
1736.983398	2326.610352
1736.000977	2214.131592
1735.018555	2236.555908
1734.036133	2320.023926
1733.052734	2342.416016
1732.070313	2273.257568
1731.086914	2366.833008
1730.102539	2442.576172
1729.119141	2228.594971
1728.134766	2365.309814
1727.150391	2341.941895
1726.166016	2412.546387
1725.181641	2422.185059
1724.197266	2426.742432
1723.211914	2565.806396
1722.226563	2514.509521
1721.241211	2557.096191
1720.254883	2559.084717
1719.269531	2505.286377
1718.283203	2547.847900
1717.296875	2534.628906
1716.310547	2508.745361
1715.323242	2528.476807
1714.336914	2451.945313
1713.349609	2453.953125
1712.362305	2630.662109
1711.374023	2538.969727
1710.386719	2576.389160
1709.398438	2601.140869
1708.410156	2527.221680
1707.421875	2579.794678
1706.433594	2607.058594
1705.444336	2609.029297
1704.455078	2613.526855
1703.465820	2648.346924
1702.476563	2673.045898
1701.486328	2702.786377
1700.497070	2687.056396
1699.506836	2731.930420
1698.516602	2839.893799
1697.525391	2803.954102
1696.535156	2861.390625
1695.543945	2903.666016
1694.552734	2948.445557
1693.561523	2894.861572
1692.569336	2974.919434
1691.578125	2951.599365
1690.585938	3069.411377
1689.593750	2920.105713
1688.601563	2949.710449
1687.608398	3100.187012
1686.615234	3021.471191
1685.622070	3119.003662
1684.628906	3130.922607
1683.635742	3210.776123
1682.641602	3194.997070
1681.648438	3164.133545
1680.654297	3294.222168
1679.659180	3215.581787
1678.665039	3167.138184
1677.669922	3234.316162
1676.674805	3216.039307
1675.679688	3330.906006
1674.684570	3297.547363
1673.688477	3264.203125
1672.692383	3253.466309
1671.697266	3250.263672
1670.700195	3415.186768
1669.704102	3349.231201
1668.707031	3358.551025
1667.709961	3260.035156
1666.712891	3244.298096
1665.715820	3253.634277
1664.718750	3177.758301
1663.720703	3139.498291
1662.722656	3281.618164
1661.724609	3233.334229
1660.725586	3200.094482
1659.727539	3282.027832
1658.728516	3181.212891
1657.729492	3230.583984
1656.730469	3114.811523
1655.730469	3101.642578
1654.731445	3150.998779
1653.731445	3152.829102
1652.731445	3094.665039
1651.730469	3153.988037
1650.730469	3115.837402
1649.729492	3167.635986
1648.728516	3149.479492
1647.727539	3181.272217
1646.725586	3215.547607
1645.724609	3209.872314
1644.722656	3164.271729
1643.720703	3370.680420
1642.718750	3342.525635
1641.715820	3521.375732
1640.712891	3580.468262
1639.709961	3514.894043
1638.707031	3439.378418
1637.704102	3398.779541
1636.700195	3413.005127
1635.696289	3439.678223
1634.692383	3247.203369
1633.688477	3321.203613
1632.684570	3213.465820
1631.679688	3103.285156
1630.674805	3042.912598
1629.669922	2995.003174
1628.665039	2996.854492
1627.659180	2886.812744
1626.653320	2891.171875
1625.647461	2917.897949
1624.641602	2887.459717
1623.635742	2929.081299
1622.628906	2774.460938
1621.622070	2838.438477
1620.615234	2803.077148
1619.608398	2772.695068
1618.600586	2705.099609
1617.592773	2741.743896
1616.584961	2775.891602
1615.577148	2725.699463
1614.569336	2638.333740
1613.560547	2702.230957
1612.551758	2776.015137
1611.542969	2805.162842
1610.534180	2730.241943
1609.524414	2771.771729
1608.515625	2847.954834
1607.505859	2879.538086
1606.496094	3034.879395
1605.485352	3073.834229
1604.475586	3266.183838
1603.464844	3364.445313
1602.454102	3292.005127
1601.442383	3348.181396
1600.431641	3213.968018
1599.419922	3304.741455
1598.408203	3064.330811
1597.396484	2873.436035
1596.384766	2867.886230
1595.372070	2847.520752
1594.359375	2777.781006
1593.346680	2774.723145
1592.333984	2687.751709
1591.321289	2736.532959
1590.307617	2674.276367
1589.293945	2673.709229
1588.280273	2633.686279
1587.266602	2588.749268
1586.251953	2667.078613
1585.237305	2673.906250
1584.222656	2663.483643
1583.208008	2694.942871
1582.193359	2751.017090
1581.177734	2720.885498
1580.162109	2749.850342
1579.146484	2788.647949
1578.130859	2655.174805
1577.114258	2639.850098
1576.097656	2749.978027
1575.081055	2692.833008
1574.064453	2775.857178
1573.047852	2748.228760
1572.030273	2708.323486
1571.012695	2783.919922
1569.995117	2643.302979
1568.977539	2733.617432
1567.958984	2656.915283
1566.941406	2678.447021
1565.922852	2722.060059
1564.903320	2696.942871
1563.884766	2664.475586
1562.865234	2685.986816
1561.846680	2773.704834
1560.826172	2709.366455
1559.806641	2706.340332
1558.787109	2752.332764
1557.766602	2754.199219
1556.746094	2741.365723
1555.725586	2755.479980
1554.704102	2683.880127
1553.683594	2756.759033
1552.662109	2646.024902
1551.640625	2701.749756
1550.618164	2755.004395
1549.596680	2703.049561
1548.574219	2812.531250
1547.551758	2753.250488
1546.529297	2767.333984
1545.506836	2876.732178
1544.483398	2775.933838
1543.459961	2792.446045
1542.436523	2730.789063
1541.413086	2683.810547
1540.388672	2717.422119
1539.364258	2731.491211
1538.340820	2701.625244
1537.315430	2693.731689
1536.291016	2712.675293
1535.265625	2770.633789
1534.240234	2748.099609
1533.214844	2747.515869
1532.189453	2720.121094
1531.164063	2792.649414
1530.137695	2738.456543
1529.111328	2820.693115
1528.084961	2798.176025
1527.057617	2717.233154
1526.031250	2816.461182
1525.003906	2750.151123
1523.976563	2856.629639
1522.948242	2792.771484
1521.920898	2724.076172
1520.892578	2721.065430
1519.864258	2776.404053
1518.835938	2739.354004
1517.806641	2814.106201
1516.778320	2733.330078
1515.749023	2834.771484
1514.719727	2814.739990
1513.689453	2794.716797
1512.660156	2769.846924
1511.629883	2820.225586
1510.599609	2729.844238
1509.569336	2780.209717
1508.538086	2772.341797
1507.507813	2682.027832
1506.476563	2773.586670
1505.445313	2811.779785
1504.413086	2796.640625
1503.381836	2839.657959
1502.349609	2872.967041
1501.317383	2765.792725
1500.285156	2881.429443
1499.251953	2897.761963
1498.218750	2858.419678
1497.185547	2894.108154
1496.152344	2920.104248
1495.119141	2950.926758
1494.084961	2955.134521
1493.050781	2952.087402
1492.016602	2898.279053
1490.982422	2914.578613
1489.948242	2986.443848
1488.913086	2961.650391
1487.877930	2980.340820
1486.842773	3013.510742
1485.806641	3080.464844
1484.771484	3116.012695
1483.735352	3156.371338
1482.699219	3100.208252
1481.662109	3181.558350
1480.625977	3236.346191
1479.588867	3160.912598
1478.551758	3230.144287
1477.514648	3224.635010
1476.476563	3182.984863
1475.439453	3331.664307
1474.401367	3294.825684
1473.363281	3453.049316
1472.324219	3512.499023
1471.286133	3535.818604
1470.247070	3578.379395
1469.208008	3541.526123
1468.168945	3646.607910
1467.128906	3737.215088
1466.088867	3625.814941
1465.049805	3735.618164
1464.008789	3823.744141
1462.968750	3914.235107
1461.927734	3781.270020
1460.886719	4049.465332
1459.845703	3981.363037
1458.804688	3903.686279
1457.763672	4070.870605
1456.721680	4036.403320
1455.679688	4052.334473
1454.637695	4192.992676
1453.594727	4148.927734
1452.551758	4064.119629
1451.508789	4226.259277
1450.465820	4127.090332
1449.422852	4164.545410
1448.378906	4158.862305
1447.335938	4095.697754
1446.291016	3987.062012
1445.247070	3988.602051
1444.203125	4049.980957
1443.158203	3955.782471
1442.113281	3902.297852
1441.068359	3779.465820
1440.022461	3838.444580
1438.977539	3739.588623
1437.931641	3777.035156
1436.885742	3745.154785
1435.838867	3627.265625
1434.792969	3650.377197
1433.746094	3613.766846
1432.699219	3737.165283
1431.652344	3688.614014
1430.604492	3728.399902
1429.556641	3553.390137
1428.508789	3726.798828
1427.460938	3573.332520
1426.413086	3610.723145
1425.364258	3605.178467
1424.315430	3709.293701
1423.266602	3768.080078
1422.217773	3631.448242
1421.167969	3740.254395
1420.118164	3756.122803
1419.068359	3657.681396
1418.018555	3666.417725
1416.968750	3668.009033
1415.917969	3660.080322
1414.867188	3666.430176
1413.816406	3646.611084
1412.764648	3774.250244
1411.713867	3652.173828
1410.662109	3696.553955
1409.610352	3729.031250
1408.557617	3768.622803
1407.505859	3770.186279
1406.453125	3945.135254
1405.400391	3846.924316
1404.346680	3763.000000
1403.293945	3852.385986
1402.240234	3929.867676
1401.186523	3898.176025
1400.132813	3778.730469
1399.078125	3737.598145
1398.024414	3753.388672
1396.969727	3771.542725
1395.915039	3756.507813
1394.859375	3720.153564
1393.804688	3664.862549
1392.749023	3789.601074
1391.693359	3679.854492
1390.636719	3617.504639
1389.581055	3682.997559
1388.524414	3694.033203
1387.467773	3645.915283
1386.411133	3583.625488
1385.353516	3549.740967
1384.296875	3492.227051
1383.239258	3746.771484
1382.180664	3705.782715
1381.123047	3747.511719
1380.064453	3777.410645
1379.005859	3764.782959
1377.947266	3759.244385
1376.888672	3732.460693
1375.829102	3651.400879
1374.770508	3551.497559
1373.709961	3607.350098
1372.650391	3580.620850
1371.590820	3523.245605
1370.530273	3522.480957
1369.469727	3545.288818
1368.409180	3421.968994
1367.347656	3555.530273
1366.286133	3519.422363
1365.224609	3509.236816
1364.163086	3440.188477
1363.101563	3470.044922
1362.039063	3485.765869
1360.976563	3376.763184
1359.914063	3507.776123
1358.851563	3394.111084
1357.788086	3487.437012
1356.724609	3418.496094
1355.661133	3403.648193
1354.597656	3466.359131
1353.533203	3449.156982
1352.468750	3523.575195
1351.404297	3365.455322
1350.339844	3545.519775
1349.275391	3544.746582
1348.209961	3595.607666
1347.144531	3547.893555
1346.079102	3497.854004
1345.012695	3520.545410
1343.946289	3517.431885
1342.879883	3680.774902
1341.813477	3626.060547
1340.747070	3540.905518
1339.679688	3659.620117
1338.612305	3551.070068
1337.544922	3491.746826
1336.477539	3526.103760
1335.409180	3658.761475
1334.340820	3672.003174
1333.272461	3647.801270
1332.204102	3686.771484
1331.134766	3604.105957
1330.065430	3687.495361
1328.996094	3616.554199
1327.926758	3543.306152
1326.857422	3596.275146
1325.787109	3623.521973
1324.716797	3505.940430
1323.646484	3547.205566
1322.575195	3525.415039
1321.503906	3683.366943
1320.432617	3668.556396
1319.361328	3628.086914
1318.290039	3673.943359
1317.217773	3642.818604
1316.145508	3581.395508
1315.073242	3615.575195
1314.000000	3694.021240
1312.927734	3693.208984
1311.854492	3727.340332
1310.781250	3642.673584
1309.707031	3772.271484
1308.633789	3699.271484
1307.559570	3693.801758
1306.485352	3667.390869
1305.410156	3720.092773
1304.335938	3691.360840
1303.260742	3762.637207
1302.185547	3696.708252
1301.109375	3702.866455
1300.034180	3736.908691
1298.958008	3761.641846
1297.881836	3791.009521
1296.805664	3787.849854
1295.728516	3682.528076
1294.651367	3874.389160
1293.574219	3764.452148
1292.497070	3772.901367
1291.419922	3809.184570
1290.341797	3799.064697
1289.263672	3816.774902
1288.185547	3989.802979
1287.106445	3930.975098
1286.027344	3756.308594
1284.948242	3966.302246
1283.869141	4051.124756
1282.790039	4003.912109
1281.709961	4009.970215
1280.629883	3969.730957
1279.549805	4063.732422
1278.468750	4062.830811
1277.388672	4221.537598
1276.307617	4109.592773
1275.225586	4154.923340
1274.144531	4135.506836
1273.062500	4129.965820
1271.980469	4233.024902
1270.898438	4070.377441
1269.816406	4194.188965
1268.733398	4214.037598
1267.650391	4171.545898
1266.567383	4133.688477
1265.483398	4222.761230
1264.400391	4159.531738
1263.316406	4137.846191
1262.232422	4236.081055
1261.147461	4080.670410
1260.063477	3962.208008
1258.978516	4078.850098
1257.893555	4144.753418
1256.807617	4139.221191
1255.722656	4237.321289
1254.636719	4024.556152
1253.550781	4221.617188
1252.463867	4149.331543
1251.377930	4265.746582
1250.291016	4094.568604
1249.204102	4316.733887
1248.116211	4292.774902
1247.028320	4351.582031
1245.941406	4311.536621
1244.852539	4363.418945
1243.764648	4206.229492
1242.675781	4274.187988
1241.587891	4215.824707
1240.498047	4272.270996
1239.409180	4291.969238
1238.319336	4171.683594
1237.230469	4209.747559
1236.139648	4201.920898
1235.049805	4251.425293
1233.958984	4211.495605
1232.868164	4244.930176
1231.777344	4067.525146
1230.686523	4089.520508
1229.594727	3882.452148
1228.502930	3993.789063
1227.411133	4024.942627
1226.319336	4040.058838
1225.226563	3817.166748
1224.133789	3921.552246
1223.041016	3938.967285
1221.948242	3963.235107
1220.854492	3859.452393
1219.760742	3904.299072
1218.666992	3828.000000
1217.573242	3827.135498
1216.478516	3910.791260
1215.383789	3800.283691
1214.289063	3863.356934
1213.193359	3832.806885
1212.098633	3838.786377
1211.002930	3926.906250
1209.907227	3996.735596
1208.810547	3897.759033
1207.713867	3864.952881
1206.617188	3948.425537
1205.520508	4006.788818
1204.423828	3989.929199
1203.326172	3952.573730
1202.228516	3919.789795
1201.130859	3871.080566
1200.032227	3933.945801
1198.934570	3885.254395
1197.835938	3845.687012
1196.736328	3869.837891
1195.637695	3834.839844
1194.538086	3731.637207
1193.438477	3851.282471
1192.338867	3875.408203
1191.238281	3833.621338
1190.137695	3844.107422
1189.037109	3915.916260
1187.936523	3828.729248
1186.834961	3909.589600
1185.734375	4040.349121
1184.632813	3959.999756
1183.530273	3893.299805
1182.428711	3989.947266
1181.326172	3909.663086
1180.223633	3806.742188
1179.120117	4055.213867
1178.017578	3984.032959
1176.914063	3894.758545
1175.810547	3939.170654
1174.706055	4114.913086
1173.602539	4116.234375
1172.498047	3950.045410
1171.392578	4041.927490
1170.288086	3934.658203
1169.182617	3985.783203
1168.077148	4129.607910
1166.971680	4090.222168
1165.866211	4005.643311
1164.759766	4022.802734
1163.653320	4073.845947
1162.546875	4070.650146
1161.439453	4144.242188
1160.332031	4089.098145
1159.224609	4140.077148
1158.117188	4177.490234
1157.008789	4052.427979
1155.901367	4143.983398
1154.791992	3967.112549
1153.683594	4033.841553
1152.574219	4064.470703
1151.465820	3989.158203
1150.355469	3981.477051
1149.246094	4003.084473
1148.135742	3927.836670
1147.025391	3915.670166
1145.915039	3935.024902
1144.804688	3990.380127
1143.693359	3973.705566
1142.582031	4146.004395
1141.470703	3933.630859
1140.358398	3961.950439
1139.247070	4005.992432
1138.134766	3984.835693
1137.021484	3992.898926
1135.909180	4025.669189
1134.795898	4096.604492
1133.682617	4093.407471
1132.568359	3971.231445
1131.455078	4015.195801
1130.340820	4099.528809
1129.226563	4100.817871
1128.111328	4176.119141
1126.997070	4157.208496
1125.881836	4219.009766
1124.765625	4271.816406
1123.650391	4140.858398
1122.534180	4092.848389
1121.417969	4141.166504
1120.301758	4129.003906
1119.184570	4177.289551
1118.068359	4075.598877
1116.950195	4186.525879
1115.833008	4089.353027
1114.714844	4137.600586
1113.597656	4235.017090
1112.478516	4314.503418
1111.360352	4331.373047
1110.241211	4258.855957
1109.122070	4358.384277
1108.002930	4337.261719
1106.883789	4237.998047
1105.763672	4444.612305
1104.643555	4481.509766
1103.522461	4417.980957
1102.402344	4499.481445
1101.281250	4440.437500
1100.160156	4486.217285
1099.038086	4507.454102
1097.916992	4432.847168
1096.794922	4547.667480
1095.672852	4481.995117
1094.549805	4645.744629
1093.426758	4611.250977
1092.303711	4701.431641
1091.180664	4626.879883
1090.057617	4803.788086
1088.933594	4876.062012
1087.809570	4877.133789
1086.684570	4913.779785
1085.560547	5017.094238
1084.435547	5093.690918
1083.310547	5203.578125
1082.184570	5200.125000
1081.058594	5334.362305
1079.932617	5406.367188
1078.806641	5589.324707
1077.679688	5621.287598
1076.553711	5639.922363
1075.426758	5722.874512
1074.298828	5774.738770
1073.171875	5731.242188
1072.043945	5838.492676
1070.915039	5854.833008
1069.787109	5875.596191
1068.658203	5801.102539
1067.529297	5669.067383
1066.400391	5621.224121
1065.270508	5597.750488
1064.140625	5457.003906
1063.010742	5404.817871
1061.880859	5261.970703
1060.750000	5240.812988
1059.619141	5184.291992
1058.488281	5101.273926
1057.356445	4958.632324
1056.225586	4995.002930
1055.093750	4808.279785
1053.960938	4882.206055
1052.829102	4812.601074
1051.696289	4848.969238
1050.563477	4889.731934
1049.429688	4835.614746
1048.295898	4887.387207
1047.162109	4842.115234
1046.028320	4962.196777
1044.893555	4945.578125
1043.759766	4995.067383
1042.625000	4943.201172
1041.489258	4992.666016
1040.353516	5196.231934
1039.217773	5093.723145
1038.082031	5154.117188
1036.946289	5108.871094
1035.809570	5125.237305
1034.672852	5231.759766
1033.535156	5303.051758
1032.398438	5200.660156
1031.260742	5236.763184
1030.123047	5268.453613
1028.984375	5297.931152
1027.845703	5380.096680
1026.707031	5277.805664
1025.568359	5294.087891
1024.428711	5290.611816
1023.289063	5322.237793
1022.149414	5211.283203
1021.009766	5236.333008
1019.869141	5090.375488
1018.728516	5139.549316
1017.587891	4967.390137
1016.446289	5077.906738
1015.304688	5092.003418
1014.163086	5046.974121
1013.020508	5102.662109
1011.878906	4967.920898
1010.736328	5176.757813
1009.592773	5009.250977
1008.450195	5196.105469
1007.306641	5393.799316
1006.163086	5753.148438
1005.018555	6361.447266
1003.875000	7004.404785
1002.729492	7264.803711
1001.584961	6749.855957
1000.440430	6121.633789
999.294922	5722.895508
998.149414	5470.552734
997.002930	5316.502930
995.856445	5225.778320
994.709961	5172.166016
993.563477	5179.617676
992.416016	5274.243164
991.268555	5344.853027
990.121094	5215.017090
988.973633	5213.736328
987.825195	5240.760254
986.676758	5304.774902
985.528320	5323.056641
984.378906	5265.178711
983.229492	5222.554688
982.080078	5410.460938
980.929688	5393.909180
979.779297	5527.339844
978.628906	5652.011230
977.478516	5830.932617
976.327148	6114.017578
975.175781	6446.904297
974.024414	6536.487793
972.873047	7157.757324
971.720703	7602.964844
970.568359	8462.279297
969.415039	9030.558594
968.262695	9982.323242
967.109375	10981.302734
965.955078	11958.114258
964.801758	13042.767578
963.647461	14176.700195
962.493164	14967.917969
961.337891	15408.016602
960.182617	15557.861328
959.027344	15447.962891
957.872070	15041.738281
956.715820	14391.315430
955.559570	13654.723633
954.403320	12728.263672
953.247070	11867.098633
952.089844	11289.406250
950.932617	10478.708008
949.774414	9800.145508
948.616211	9305.438477
947.458008	8916.743164
946.299805	8342.656250
945.141602	7846.521973
943.982422	7402.399414
942.822266	7303.511230
941.663086	7030.051758
940.502930	6851.559570
939.342773	6492.159180
938.182617	6354.817871
937.021484	6221.851563
935.860352	5983.449219
934.699219	5885.081055
933.537109	5831.954102
932.375000	5722.914063
931.212891	5611.777344
930.050781	5520.048828
928.887695	5340.221680
927.724609	5418.400391
926.560547	5406.291016
925.397461	5342.629395
924.233398	5341.281738
923.068359	5314.167480
921.904297	5370.783691
920.739258	5279.292480
919.574219	5301.558594
918.408203	5180.099609
917.242188	5208.811035
916.076172	5023.118164
914.910156	5084.002930
913.743164	5057.000977
912.576172	5038.581055
911.409180	5018.027344
910.241211	4935.389648
909.073242	5043.308105
907.905273	5009.925781
906.737305	4993.675781
905.568359	4923.958008
904.399414	4920.566895
903.229492	4983.451660
902.060547	5012.105469
900.890625	4914.671875
899.719727	4919.827637
898.548828	4854.500977
897.378906	4923.723145
896.207031	4941.677734
895.036133	4912.672363
893.864258	4992.491699
892.692383	4897.363281
891.519531	4853.460938
890.346680	4882.065430
889.173828	4904.260254
888.000977	4943.489258
886.827148	5023.172363
885.653320	4909.008789
884.479492	5063.178711
883.304688	5023.563477
882.129883	4971.199219
880.955078	5161.399902
879.779297	5040.961426
878.603516	5090.699219
877.427734	5063.878418
876.251953	4990.312500
875.075195	5065.519531
873.898438	4994.113770
872.720703	5084.145020
871.542969	5076.463379
870.365234	4869.259766
869.187500	4925.297852
868.008789	5008.885254
866.830078	5026.678711
865.651367	4949.043945
864.471680	5077.074707
863.291992	5010.061035
862.112305	5106.226074
860.932617	5138.793945
859.751953	5101.460938
858.571289	5288.560547
857.389648	5259.671875
856.208008	5294.278320
855.026367	5259.054688
853.844727	5215.389160
852.662109	5241.519043
851.479492	5168.284668
850.295898	5027.463379
849.113281	5224.748535
847.929688	5160.021484
846.745117	5095.327148
845.561523	4984.222168
844.376953	5166.535645
843.191406	5120.876465
842.006836	5178.601563
840.821289	5185.683105
839.635742	5131.618652
838.449219	5155.568359
837.262695	5234.291504
836.076172	5159.187012
834.889648	5159.940918
833.702148	5213.331543
832.514648	5083.558594
831.326172	5134.834473
830.137695	5061.953613
828.949219	5058.519531
827.760742	5025.647461
826.571289	5066.369629
825.381836	4892.698242
824.191406	4817.870117
823.001953	4780.891113
821.811523	4869.930664
820.620117	4940.027832
819.429688	5091.943848
818.238281	5006.665039
817.045898	5196.241699
815.854492	5129.853027
814.662109	5149.463379
813.468750	5286.445313
812.276367	5303.905762
811.083008	5076.237793
809.889648	4907.334961
808.695313	5014.916992
807.500977	4833.557617
806.306641	4844.831543
805.111328	4565.275879
803.916016	4679.105469
802.720703	4619.309570
801.525391	4544.910645
800.329102	4503.990234
799.132813	4517.416992
797.935547	4486.968750
796.738281	4406.415039
795.541016	4515.892578
794.342773	4468.768555
793.145508	4536.435547
791.946289	4445.520508
790.748047	4490.214355
789.548828	4474.418457
788.349609	4425.278809
787.150391	4549.127441
785.950195	4435.408691
784.750000	4611.255859
783.548828	4541.306152
782.347656	4498.454590
781.146484	4515.977051
779.945313	4514.764160
778.743164	4548.910156
777.541016	4433.319336
776.337891	4384.312988
775.135742	4472.499512
773.932617	4587.648438
772.728516	4459.704590
771.524414	4479.268555
770.320313	4451.071289
769.116211	4441.568359
767.911133	4490.167480
766.706055	4513.846680
765.500977	4500.184082
764.294922	4530.065430
763.088867	4472.876953
761.881836	4469.593750
760.674805	4545.031250
759.467773	4483.740234
758.260742	4575.694824
757.052734	4508.216797
755.844727	4535.963379
754.636719	4534.731445
753.427734	4566.590332
752.218750	4557.078125
751.008789	4407.008789
749.798828	4409.942383
748.588867	4445.928223
747.378906	4448.847656
746.167969	4464.153320
744.957031	4454.678711
743.745117	4449.335449
742.533203	4510.014648
741.321289	4560.346680
740.109375	4478.681641
738.896484	4504.255371
737.683594	4435.013672
736.469727	4501.790039
735.255859	4572.647949
734.041992	4589.927246
732.828125	4430.154785
731.613281	4486.564453
730.397461	4557.345215
729.182617	4375.083496
727.966797	4509.601074
726.750977	4440.519531
725.534180	4648.931641
724.317383	4536.699707
