#Wave		#Intensity
1819.728516	1285.775757
1818.763672	1290.960327
1817.799805	1345.104126
1816.834961	1241.163696
1815.869141	1305.657104
1814.904297	1269.111450
1813.938477	1263.655151
1812.972656	1281.501343
1812.006836	1322.634644
1811.041016	1247.300781
1810.075195	1280.662109
1809.108398	1277.795898
1808.141602	1321.480225
1807.174805	1323.777588
1806.208008	1377.772583
1805.240234	1318.031494
1804.272461	1353.917603
1803.304688	1356.205811
1802.336914	1335.248901
1801.369141	1347.868652
1800.400391	1399.206421
1799.431641	1321.471802
1798.462891	1388.275513
1797.494141	1375.074097
1796.524414	1374.775024
1795.554688	1446.681030
1794.584961	1443.788330
1793.615234	1489.871826
1792.645508	1463.777344
1791.674805	1514.989502
1790.705078	1535.268066
1789.734375	1540.085327
1788.762695	1539.750977
1787.791992	1526.545288
1786.820313	1487.608276
1785.848633	1515.590210
1784.876953	1479.244995
1783.905273	1468.635986
1782.932617	1470.889038
1781.960938	1403.726074
1780.988281	1439.406982
1780.014648	1377.419556
1779.041992	1415.660034
1778.068359	1358.841919
1777.095703	1381.661011
1776.122070	1419.875610
1775.147461	1314.320068
1774.173828	1465.457642
1773.199219	1408.690308
1772.224609	1426.343140
1771.250000	1364.479248
1770.275391	1459.061646
1769.299805	1363.889282
1768.324219	1437.925781
1767.348633	1442.740234
1766.373047	1396.311768
1765.397461	1419.063477
1764.420898	1388.025879
1763.444336	1390.286499
1762.467773	1500.058960
1761.491211	1394.804932
1760.513672	1397.062622
1759.537109	1488.855347
1758.559570	1468.073242
1757.582031	1457.528442
1756.603516	1541.579224
1755.625977	1600.034058
1754.647461	1617.577026
1753.668945	1522.698486
1752.690430	1652.640381
1751.710938	1685.483276
1750.732422	1593.204590
1749.752930	1654.125488
1748.773438	1740.541138
1747.792969	1811.610352
1746.813477	1862.240723
1745.833008	1861.839966
1744.852539	2045.033447
1743.872070	2121.074707
1742.891602	2240.413086
1741.910156	2173.676270
1740.928711	2364.288086
1739.947266	2381.610107
1738.965820	2460.043945
1737.983398	2568.996826
1737.001953	2576.081543
1736.019531	2621.337891
1735.037109	2671.663818
1734.053711	2686.353516
1733.071289	2838.377686
1732.087891	2830.139893
1731.104492	2862.582031
1730.121094	2900.093262
1729.136719	2968.082520
1728.153320	3084.314453
1727.168945	2992.210205
1726.184570	3037.280029
1725.200195	3021.395020
1724.214844	2949.670654
1723.229492	2872.901611
1722.245117	2831.688232
1721.258789	2869.133545
1720.273438	2739.169189
1719.287109	2703.082275
1718.301758	2563.068359
1717.315430	2392.698730
1716.328125	2290.822510
1715.341797	2219.392578
1714.354492	2099.865967
1713.367188	2020.910034
1712.379883	1990.094360
1711.392578	1931.446777
1710.405273	1865.231567
1709.416992	1852.181152
1708.428711	1877.082520
1707.440430	1770.453979
1706.451172	1739.731201
1705.462891	1734.302979
1704.473633	1713.711548
1703.484375	1751.251099
1702.495117	1606.865356
1701.504883	1707.561035
1700.514648	1664.263794
1699.525391	1684.107544
1698.534180	1678.699097
1697.543945	1625.340332
1696.553711	1597.237183
1695.562500	1637.260010
1694.571289	1616.732788
1693.580078	1596.214355
1692.587891	1646.296265
1691.596680	1719.041992
1690.604492	1632.993408
1689.612305	1677.996216
1688.619141	1682.676270
1687.626953	1601.727295
1686.633789	1737.352295
1685.640625	1706.773438
1684.647461	1610.770020
1683.654297	1731.208618
1682.660156	1693.103149
1681.666016	1722.924927
1680.671875	1709.984253
1679.677734	1649.280273
1678.683594	1704.228271
1677.688477	1620.933594
1676.693359	1638.176025
1675.698242	1685.555176
1674.703125	1755.517334
1673.707031	1622.063843
1672.710938	1704.561523
1671.714844	1694.159180
1670.718750	1718.891724
1669.722656	1741.104858
1668.725586	1733.209473
1667.728516	1745.379150
1666.731445	1734.978882
1665.734375	1744.636230
1664.736328	1691.636230
1663.739258	1658.703613
1662.741211	1831.199829
1661.743164	1780.719727
1660.744141	1710.229004
1659.746094	1687.333984
1658.747070	1712.004395
1657.748047	1726.654663
1656.749023	1713.778198
1655.749023	1730.923096
1654.749023	1690.542114
1653.750000	1665.180054
1652.749023	1674.824951
1651.749023	1724.453003
1650.749023	1609.147339
1649.748047	1698.738525
1648.747070	1668.406128
1647.746094	1610.618652
1646.744141	1750.083252
1645.743164	1752.207397
1644.741211	1664.492920
1643.739258	1606.755127
1642.736328	1628.863647
1641.734375	1720.791992
1640.731445	1633.158447
1639.728516	1707.596802
1638.725586	1657.387817
1637.722656	1639.593262
1636.718750	1686.578979
1635.714844	1686.220703
1634.710938	1646.019531
1633.707031	1727.828979
1632.703125	1685.146729
1631.698242	1714.652344
1630.693359	1769.026123
1629.688477	1649.247925
1628.682617	1718.534546
1627.677734	1608.763794
1626.671875	1697.917236
1625.666016	1734.838501
1624.660156	1756.834473
1623.653320	1622.304688
1622.647461	1693.992310
1621.640625	1713.499512
1620.633789	1703.204590
1619.626953	1678.020386
1618.619141	1749.635132
1617.611328	1774.076050
1616.603516	1743.931274
1615.595703	1731.160400
1614.587891	1800.223145
1613.579102	1727.946777
1612.570313	1682.965454
1611.561523	1811.468018
1610.552734	1858.156982
1609.542969	1892.441040
1608.534180	1971.287354
1607.524414	2126.854980
1606.514648	2175.912598
1605.503906	2363.544678
1604.494141	2627.803223
1603.483398	2765.782227
1602.472656	2752.828857
1601.460938	2848.684814
1600.450195	2704.687744
1599.438477	2582.997559
1598.426758	2466.301270
1597.415039	2268.120605
1596.403320	2139.189453
1595.390625	2052.297119
1594.378906	2002.478882
1593.366211	1925.526855
1592.352539	1883.160767
1591.339844	1937.048096
1590.326172	1956.373779
1589.312500	1894.295532
1588.298828	1876.631836
1587.285156	1873.768311
1586.270508	1976.899292
1585.255859	2040.555542
1584.241211	1985.916626
1583.226563	1899.276611
1582.211914	2046.646118
1581.196289	2048.674316
1580.180664	1947.305054
1579.165039	2003.502075
1578.149414	1939.096802
1577.132813	1914.083008
1576.117188	1886.619873
1575.100586	1837.035400
1574.083008	1866.150146
1573.066406	1843.630737
1572.048828	1828.493774
1571.031250	1869.877197
1570.013672	1857.197632
1568.996094	1871.540161
1567.978516	1775.376099
1566.959961	1826.555420
1565.941406	1840.895142
1564.922852	1815.964600
1563.903320	1795.951538
1562.884766	1825.006104
1561.865234	1814.809204
1560.845703	1838.943359
1559.825195	1789.525146
1558.805664	1850.417603
1557.785156	1810.819214
1556.764648	1754.088623
1555.744141	1780.658936
1554.723633	1831.706055
1553.702148	1804.386230
1552.680664	1772.182373
1551.659180	1867.248901
1550.637695	1830.151733
1549.615234	1893.364746
1548.592773	1829.375000
1547.570313	1848.548096
1546.547852	1826.153931
1545.525391	1767.107178
1544.501953	1739.852295
1543.478516	1820.105103
1542.455078	1831.931641
1541.431641	1814.448242
1540.407227	1848.244629
1539.383789	1786.826660
1538.359375	1798.649780
1537.334961	1869.027344
1536.309570	1834.478027
1535.285156	1877.989502
1534.259766	1860.521606
1533.234375	1896.695190
1532.208008	1803.671387
1531.182617	1783.793213
1530.156250	1854.068726
1529.129883	1890.212402
1528.103516	1833.798462
1527.076172	1848.017700
1526.049805	1825.716431
1525.022461	1798.557007
1523.995117	1949.036499
1522.967773	1936.458618
1521.939453	1838.758301
1520.911133	1794.596802
1519.882813	1896.325195
1518.854492	1905.644653
1517.826172	1866.357178
1516.796875	1933.990112
1515.767578	1846.130615
1514.738281	1865.166870
1513.708984	1976.462280
1512.678711	1963.904053
1511.648438	1888.247681
1510.618164	1870.860229
1509.587891	2013.597534
1508.557617	1959.808105
1507.526367	1990.915894
1506.495117	2031.708374
1505.463867	2028.852051
1504.432617	2023.573364
1503.400391	1950.454956
1502.368164	2068.737793
1501.335938	2073.141357
1500.303711	2116.284668
1499.270508	2079.521240
1498.238281	2166.210938
1497.205078	2170.589355
1496.171875	2278.996338
1495.137695	2372.844238
1494.104492	2413.449707
1493.070313	2446.784180
1492.036133	2451.097412
1491.001953	2438.491455
1489.966797	2619.188721
1488.931641	2608.967773
1487.896484	2705.019531
1486.861328	2658.563965
1485.826172	2766.634766
1484.790039	2688.808105
1483.753906	2632.732422
1482.717773	2687.661377
1481.681641	2670.203369
1480.644531	2647.929443
1479.608398	2654.597900
1478.571289	2695.011230
1477.533203	2653.465332
1476.496094	2684.222900
1475.458008	2746.284668
1474.419922	2880.574951
1473.381836	2892.000000
1472.343750	2956.384521
1471.304688	3044.810791
1470.265625	3053.786377
1469.226563	3146.965820
1468.187500	3223.267090
1467.148438	3359.658447
1466.108398	3532.057129
1465.068359	3617.842041
1464.028320	3674.749756
1462.987305	3911.846924
1461.947266	4081.576904
1460.906250	4027.864014
1459.865234	3954.963379
1458.824219	4050.149658
1457.782227	4145.294922
1456.740234	4163.606445
1455.698242	4186.708008
1454.656250	4394.503418
1453.614258	4345.598145
1452.571289	4514.906250
1451.528320	4420.448730
1450.485352	4560.907227
1449.442383	4639.004883
1448.398438	4484.688477
1447.354492	4428.639648
1446.310547	4245.698242
1445.266602	4067.623291
1444.221680	3987.762207
1443.177734	3797.852783
1442.132813	3823.357178
1441.086914	3604.858643
1440.041992	3537.122070
1438.996094	3474.196289
1437.950195	3267.864746
1436.904297	3207.413330
1435.858398	3106.365723
1434.811523	3115.255127
1433.765625	3014.270264
1432.717773	2951.535889
1431.670898	2869.728516
1430.624023	2821.373535
1429.576172	2787.357422
1428.528320	2636.445801
1427.480469	2669.275146
1426.431641	2463.600342
1425.383789	2362.926758
1424.334961	2450.622314
1423.286133	2266.576660
1422.236328	2266.089355
1421.187500	2308.484131
1420.137695	2286.551270
1419.087891	2274.152832
1418.038086	2256.998047
1416.987305	2216.047607
1415.936523	2246.507813
1414.886719	2293.609375
1413.834961	2178.935547
1412.784180	2142.792969
1411.732422	2161.353271
1410.680664	2108.588867
1409.628906	2134.278320
1408.577148	2129.066162
1407.524414	2178.496582
1406.471680	2175.651611
1405.418945	2208.427734
1404.366211	2184.210205
1403.313477	2178.991699
1402.259766	2252.088379
1401.206055	2187.542236
1400.152344	2208.418945
1399.097656	2188.969482
1398.043945	2216.949951
1396.989258	2247.288330
1395.933594	2242.062988
1394.878906	2270.013184
1393.823242	2241.094482
1392.768555	2321.139404
1391.712891	2334.845703
1390.656250	2495.330078
1389.600586	2340.937256
1388.543945	2387.760254
1387.487305	2425.098877
1386.430664	2360.707275
1385.373047	2322.357666
1384.315430	2272.202393
1383.257813	2295.349365
1382.200195	2283.035400
1381.142578	2228.194824
1380.083984	2178.102539
1379.025391	2168.183105
1377.966797	2191.326660
1376.908203	2240.429199
1375.848633	2202.178223
1374.789063	2145.065430
1373.729492	2255.487061
1372.669922	2231.409912
1371.609375	2238.000488
1370.549805	2230.441406
1369.489258	2260.601563
1368.427734	2260.110596
1367.367188	2179.508301
1366.305664	2263.840332
1365.244141	2256.282959
1364.182617	2246.373779
1363.121094	2316.510986
1362.058594	2170.079834
1360.996094	2200.198975
1359.933594	2183.251953
1358.871094	2199.241943
1357.807617	2226.982666
1356.744141	2287.626709
1355.680664	2280.076904
1354.617188	2176.176758
1353.552734	2279.083740
1352.488281	2179.926758
1351.423828	2153.617676
1350.359375	2294.030273
1349.294922	2270.054932
1348.229492	2309.459229
1347.164063	2283.143799
1346.098633	2270.915771
1345.032227	2291.529541
1343.965820	2342.618408
1342.899414	2264.740234
1341.833008	2339.251709
1340.766602	2350.457764
1339.699219	2310.114502
1338.631836	2407.990723
1337.564453	2355.942627
1336.497070	2383.524170
1335.428711	2413.434082
1334.360352	2316.951416
1333.291992	2433.436768
1332.223633	2517.119873
1331.154297	2495.519531
1330.085938	2410.793945
1329.015625	2431.306152
1327.946289	2472.844482
1326.876953	2505.017334
1325.806641	2420.362793
1324.736328	2499.247559
1323.666016	2491.693604
1322.594727	2586.870605
1321.523438	2586.302979
1320.452148	2504.055908
1319.380859	2410.178711
1318.309570	2416.647461
1317.237305	2514.067383
1316.165039	2518.178223
1315.092773	2564.247559
1314.020508	2449.483398
1312.947266	2525.838379
1311.874023	2469.372314
1310.800781	2487.461670
1309.726563	2512.528564
1308.653320	2511.975586
1307.579102	2511.422363
1306.504883	2462.001465
1305.429688	2526.601563
1304.355469	2523.718750
1303.280273	2544.092041
1302.205078	2594.680664
1301.129883	2626.650879
1300.053711	2521.493408
1298.977539	2527.907227
1297.901367	2545.932617
1296.825195	2661.491455
1295.748047	2633.040771
1294.671875	2662.637207
1293.594727	2610.989258
1292.516602	2689.304688
1291.439453	2700.309326
1290.361328	2648.686523
1289.283203	2652.738037
1288.205078	2712.427246
1287.125977	2674.741943
1286.047852	2729.764648
1284.968750	2715.259277
1283.888672	2633.588623
1282.809570	2695.530029
1281.729492	2690.302002
1280.649414	2715.167236
1279.569336	2733.078613
1278.488281	2695.453125
1277.408203	2611.580322
1276.327148	2652.628662
1275.246094	2693.658203
1274.164063	2723.111084
1273.082031	2623.127686
1272.000977	2590.196045
1270.917969	2573.449219
1269.835938	2662.950684
1268.752930	2717.775879
1267.669922	2608.668945
1266.586914	2621.936523
1265.503906	2653.657959
1264.419922	2701.514160
1263.335938	2680.153564
1262.251953	2594.234863
1261.167969	2609.794678
1260.083008	2678.361328
1258.998047	2650.110352
1257.913086	2741.676270
1256.828125	2720.333496
1255.742188	2747.360840
1254.656250	2703.001709
1253.570313	2771.453857
1252.484375	2789.245117
1251.397461	2910.566162
1250.310547	2884.611572
1249.223633	2874.767090
1248.135742	2890.218750
1247.048828	2972.327881
1245.960938	2971.662354
1244.873047	3014.653809
1243.784180	3004.789307
1242.696289	3068.424072
1241.607422	2957.518066
1240.518555	2986.698486
1239.428711	3084.721191
1238.339844	3100.091309
1237.250000	3101.689453
1236.160156	3062.000977
1235.069336	3022.330078
1233.979492	2978.091309
1232.888672	3080.565674
1231.797852	2997.376465
1230.706055	2937.134521
1229.615234	2895.243896
1228.523438	2835.051270
1227.431641	2829.833984
1226.338867	2852.086426
1225.247070	2853.732178
1224.154297	2738.690674
1223.061523	2875.319824
1221.967773	2780.907227
1220.875000	2700.255127
1219.781250	2733.934082
1218.686523	2639.616211
1217.592773	2693.856689
1216.498047	2670.404541
1215.403320	2731.464355
1214.308594	2758.246582
1213.213867	2821.541016
1212.118164	2770.692383
1211.022461	2783.755859
1209.926758	2826.469238
1208.831055	2894.250977
1207.734375	2886.754639
1206.637695	2881.541016
1205.541016	2880.887451
1204.443359	3019.232666
1203.346680	2911.474609
1202.249023	2910.813721
1201.150391	2871.441895
1200.052734	2941.364258
1198.954102	2829.167969
1197.855469	2901.343018
1196.756836	2866.557617
1195.657227	2931.866943
1194.558594	2974.406006
1193.458984	2978.275879
1192.358398	2984.416504
1191.258789	2967.829590
1190.158203	2917.170654
1189.057617	2923.319824
1187.957031	3077.074707
1186.855469	3169.458740
1185.753906	3141.497070
1184.652344	3152.126465
1183.550781	3230.815918
1182.448242	3309.468750
1181.345703	3279.230957
1180.243164	3235.403076
1179.140625	3218.795898
1178.037109	3095.682617
1176.933594	3094.974121
1175.830078	3085.204590
1174.726563	3073.174561
1173.622070	3063.413818
1172.517578	3101.193604
1171.413086	3014.483887
1170.308594	3016.054932
1169.203125	3042.507813
1168.097656	3025.978516
1166.992188	3054.677246
1165.885742	3167.002197
1164.780273	3170.794189
1163.673828	3185.881836
1162.566406	3149.005615
1161.459961	3207.000732
1160.352539	3143.040527
1159.245117	3027.188965
1158.137695	3100.969238
1157.029297	3167.945801
1155.920898	3016.073486
1154.812500	2972.526611
1153.704102	2996.644043
1152.594727	3079.361084
1151.485352	2857.780762
1150.375977	2893.172852
1149.266602	2824.922363
1148.156250	2792.738525
1147.045898	2911.432373
1145.935547	2813.958740
1144.825195	2824.560791
1143.713867	2765.403809
1142.602539	2733.268799
1141.491211	2793.360840
1140.378906	2826.441895
1139.266602	2875.243408
1138.154297	2840.863770
1137.041992	2853.686768
1135.928711	2848.531250
1134.816406	2847.869873
1133.703125	2914.571289
1132.588867	2884.710205
1131.475586	3005.236328
1130.361328	3087.560547
1129.247070	3199.009277
1128.131836	3326.105713
1127.016602	3327.573486
1125.901367	3324.556396
1124.786133	3505.323242
1123.670898	3448.487793
1122.554688	3375.996826
1121.438477	3554.384033
1120.322266	3394.573730
1119.205078	3362.439941
1118.087891	3361.654541
1116.970703	3228.850830
1115.853516	3221.384521
1114.735352	3052.889893
1113.617188	3045.467529
1112.499023	3055.932129
1111.380859	2905.472900
1110.261719	2889.151123
1109.142578	2781.245117
1108.023438	2731.458008
1106.903320	2900.516602
1105.784180	2826.167969
1104.664063	2760.781250
1103.542969	2771.289551
1102.422852	2790.715576
1101.301758	2765.526611
1100.180664	2767.105957
1099.058594	2710.724854
1097.937500	2616.481934
1096.815430	2655.972656
1095.693359	2595.200928
1094.570313	2630.223145
1093.447266	2576.165039
1092.324219	2635.661133
1091.201172	2657.294678
1090.078125	2685.592773
1088.954102	2642.693359
1087.830078	2595.365723
1086.705078	2712.594727
1085.581055	2618.591064
1084.456055	2660.197021
1083.331055	2644.014404
1082.205078	2623.396484
1081.079102	2711.607666
1079.953125	2582.188721
1078.827148	2619.312500
1077.701172	2694.145264
1076.574219	2642.475830
1075.447266	2624.103271
1074.319336	2749.886230
1073.192383	2613.988525
1072.064453	2819.510742
1070.935547	2761.222656
1069.807617	2722.901611
1068.678711	2717.823730
1067.549805	2719.391357
1066.420898	2760.808838
1065.291016	2811.060059
1064.161133	2881.202881
1063.031250	2778.746582
1061.901367	2904.158936
1060.770508	2949.903564
1059.639648	2814.340820
1058.508789	2846.822510
1057.377930	2932.322021
1056.246094	2779.185303
1055.114258	2855.824463
1053.981445	2720.443848
1052.849609	2635.902832
1051.716797	2655.135254
1050.583984	2678.771240
1049.450195	2704.601563
1048.317383	2668.664795
1047.183594	2906.162354
1046.048828	2861.375732
1044.915039	3006.147217
1043.780273	3190.509766
1042.645508	3412.231934
1041.509766	3598.609619
1040.375000	3745.264648
1039.239258	3814.803711
1038.102539	3549.796143
1036.966797	3397.126465
1035.830078	3264.326904
1034.693359	3048.023193
1033.556641	2943.952637
1032.418945	2879.497559
1031.281250	2784.307373
1030.143555	2831.969482
1029.004883	2818.106201
1027.867188	2815.228760
1026.727539	2876.020020
1025.588867	2838.010742
1024.450195	2837.323730
1023.310547	2856.381104
1022.169922	2947.807861
1021.030273	2804.562744
1019.889648	2823.612793
1018.749023	2820.735840
1017.608398	2806.904053
1016.466797	2762.409424
1015.325195	2717.935791
1014.183594	2732.602295
1013.041992	2685.967529
1011.899414	2737.838623
1010.756836	2866.263184
1009.614258	2828.378662
1008.470703	2989.521729
1007.327148	3161.517578
1006.183594	3484.253174
1005.040039	3944.505859
1003.895508	4775.947266
1002.750977	5567.665527
1001.606445	5913.517090
1000.460938	5313.878418
999.315430	4845.490723
998.169922	4549.719238
997.023438	4446.071289
995.877930	4342.472656
994.731445	4415.546387
993.583984	4468.963867
992.437500	4526.712891
991.290039	4466.771484
990.142578	4489.637207
988.994141	4553.870117
987.845703	4419.935547
986.697266	4542.925293
985.548828	4570.099121
984.399414	4477.595215
983.250000	4374.260254
982.100586	4366.658691
980.951172	4441.676270
979.800781	4429.713867
978.650391	4406.891113
977.499023	4292.834473
976.348633	4194.036621
975.197266	4236.429199
974.045898	4300.508789
972.893555	4342.852539
971.741211	4476.306641
970.588867	4520.753418
969.436523	4645.420410
968.283203	4696.306641
967.129883	4753.669922
965.976563	4800.167969
964.822266	4742.645996
963.667969	4702.480469
962.513672	4718.637207
961.359375	4453.338867
960.204102	4480.369629
959.048828	4332.111328
957.892578	4149.312012
956.737305	4014.184814
955.581055	3926.694336
954.424805	3763.585938
953.267578	3602.718994
952.110352	3606.142090
950.953125	3499.396484
949.795898	3628.098145
948.637695	3456.627686
947.479492	3565.847900
946.321289	3448.426514
945.162109	3326.748291
944.002930	3381.995117
942.843750	3413.493652
941.684570	3412.638916
940.524414	3314.796875
939.364258	3199.765625
938.203125	3298.055420
937.042969	3271.384277
935.881836	3292.093994
934.719727	3228.842773
933.558594	3120.430420
932.396484	3227.219727
931.234375	3146.823242
930.071289	3085.820313
928.908203	3181.786865
927.745117	3262.659180
926.582031	3154.398438
925.417969	3190.122803
924.253906	3243.010254
923.089844	3111.215820
921.924805	3136.189453
920.760742	3182.610352
919.594727	3177.514893
918.429688	3256.075439
917.263672	3180.196289
916.097656	3226.556885
914.931641	3283.609863
913.764648	3374.918457
912.597656	3519.736572
911.430664	3424.608154
910.262695	3325.245117
909.094727	3330.822754
907.926758	3366.357910
906.757813	3341.967285
905.589844	3302.615479
904.419922	3312.467529
903.250977	3232.521729
902.081055	3173.989502
900.911133	3213.780518
899.741211	3140.327881
898.570313	3212.141602
897.399414	3140.860840
896.228516	3133.655029
895.056641	3128.586426
893.885742	3228.063721
892.712891	3233.637451
891.541016	3254.134766
890.368164	3249.038086
889.195313	3271.651123
888.022461	3385.877197
886.848633	3342.403809
885.674805	3320.249268
884.500000	3202.292236
883.326172	3488.835938
882.151367	3311.308350
880.976563	3459.385498
879.800781	3539.321777
878.625000	3489.502930
877.449219	3471.597656
876.272461	3474.954346
875.096680	3397.566162
873.919922	3445.548096
872.742188	3351.216309
871.564453	3301.518799
870.386719	3304.911621
869.208984	3301.936035
868.030273	3273.502930
866.851563	3372.342041
865.672852	3218.799316
864.493164	3298.521484
863.313477	3236.206787
862.133789	3294.694092
860.954102	3312.904053
859.773438	3333.221436
858.591797	3357.762207
857.411133	3369.589844
856.229492	3284.073486
855.047852	3314.952148
853.866211	3358.503662
852.683594	3325.914307
851.500977	3458.219727
850.317383	3440.412842
849.134766	3485.996338
847.951172	3613.930176
846.766602	3570.755127
845.583008	3713.376221
844.398438	3691.301514
843.212891	3755.746094
842.028320	3689.372559
840.842773	3772.762451
839.657227	3740.150635
838.470703	3625.352295
837.284180	3533.792725
836.097656	3467.560303
834.911133	3479.287842
833.723633	3347.830811
832.536133	3370.107178
831.347656	3299.775391
830.159180	3353.609863
828.970703	3487.342285
827.782227	3473.808350
826.592773	3498.121094
825.403320	3535.030518
824.213867	3613.942139
823.023438	3697.012695
821.833008	3998.440918
820.641602	4106.558594
819.451172	4550.444336
818.259766	5327.733398
817.067383	6419.281738
815.875977	8040.856445
814.683594	9500.125977
813.490234	10746.911133
812.297852	11358.072266
811.104492	10619.707031
809.911133	9224.066406
808.716797	7843.821777
807.522461	6642.243164
806.328125	5715.458496
805.132813	5067.434570
803.937500	4672.848633
802.742188	4353.752930
801.546875	4041.097900
800.350586	3929.250732
799.154297	3823.730713
797.957031	3624.265137
796.759766	3587.796631
795.562500	3574.312988
794.365234	3746.600098
793.166992	4377.865234
791.968750	4556.102539
790.769531	4481.889648
789.570313	3625.836182
788.371094	3410.166992
787.171875	3417.589600
785.971680	3345.840576
784.771484	3374.102783
783.570313	3344.046875
782.370117	3322.333008
781.167969	3290.224609
779.966797	3293.501953
778.764648	3228.137451
777.562500	3266.778564
776.360352	3270.057373
775.157227	3196.436523
773.954102	3108.310303
772.750000	3182.251709
771.546875	3171.010498
770.342773	3066.351807
769.137695	3104.958984
767.932617	3155.994141
766.727539	3034.827148
765.522461	3123.181396
764.316406	3143.069336
763.110352	3152.582275
761.903320	3104.069580
760.697266	3005.864502
759.490234	3065.109375
758.282227	3008.375732
757.074219	3013.769287
755.866211	3027.436523
754.658203	3012.132813
753.449219	2936.858643
752.240234	3014.630615
751.030273	3011.743408
749.821289	2924.129639
748.611328	2970.850586
747.400391	2860.574951
746.189453	2929.999512
744.978516	2883.786133
743.767578	2909.827393
742.555664	2884.275146
741.343750	2928.863770
740.130859	2870.326660
738.917969	2982.921387
737.705078	2955.313721
736.492188	3024.555420
735.278320	3031.965820
734.064453	2994.069336
732.849609	3079.710693
731.634766	3047.994629
730.419922	3043.042969
729.204102	3064.833252
727.988281	2950.890625
726.772461	2964.469727
725.556641	2918.438965
724.339844	2882.706055
