#Wave		#Intensity
1819.643555	4093.153320
1818.678711	4160.551758
1817.713867	4118.174805
1816.749023	4078.407227
1815.784180	4098.240234
1814.819336	4162.093750
1813.853516	4117.164063
1812.887695	4186.163574
1811.921875	4216.308594
1810.956055	4036.835693
1809.989258	4232.577637
1809.023438	4141.123535
1808.056641	4052.295166
1807.089844	4160.000488
1806.122070	4161.678223
1805.155273	4233.132324
1804.187500	4301.971191
1803.219727	4156.374023
1802.251953	4178.712402
1801.283203	4250.100586
1800.315430	4156.240234
1799.346680	4232.764160
1798.377930	4193.137207
1797.408203	4230.922363
1796.439453	4276.428711
1795.469727	4334.808594
1794.500000	4287.459473
1793.530273	4286.527344
1792.559570	4203.130859
1791.589844	4225.405762
1790.619141	4304.341309
1789.648438	4393.543457
1788.677734	4232.952637
1787.706055	4278.369629
1786.735352	4233.688965
1785.763672	4320.255859
1784.791992	4345.044434
1783.819336	4277.229980
1782.847656	4353.445801
1781.875000	4290.800781
1780.902344	4341.277344
1779.929688	4317.208496
1778.956055	4293.150391
1777.983398	4315.338379
1777.009766	4455.648926
1776.036133	4462.387207
1775.061523	4284.299316
1774.087891	4401.427734
1773.113281	4308.104004
1772.138672	4348.216797
1771.164063	4301.110840
1770.189453	4530.959961
1769.213867	4455.634277
1768.238281	4364.962402
1767.262695	4374.269531
1766.287109	4373.324219
1765.311523	4508.136230
1764.334961	4417.531250
1763.358398	4557.395996
1762.381836	4558.971680
1761.405273	4465.855469
1760.427734	4395.807617
1759.451172	4438.347168
1758.473633	4373.450684
1757.496094	4510.586426
1756.517578	4578.638672
1755.540039	4488.194336
1754.561523	4441.230469
1753.583008	4665.097168
1752.603516	4508.281738
1751.625000	4558.385254
1750.645508	4501.233398
1749.666016	4541.105957
1748.686523	4499.295410
1747.707031	4567.217773
1746.726563	4596.846680
1745.747070	4537.197754
1744.766602	4584.668945
1743.786133	4708.599609
1742.804688	4633.672852
1741.824219	4591.904785
1740.842773	4761.611816
1739.861328	4612.854980
1738.878906	4647.515625
1737.897461	4740.720215
1736.915039	4767.702148
1735.932617	4789.582520
1734.950195	4859.796875
1733.967773	4929.981445
1732.984375	4872.970215
1732.000977	4884.637695
1731.017578	4949.687012
1730.034180	5012.166504
1729.050781	4967.892090
1728.066406	4928.717773
1727.082031	4912.420410
1726.097656	4985.012207
1725.113281	4963.631836
1724.127930	4957.490723
1723.143555	5075.707031
1722.158203	4985.813477
1721.172852	5124.267578
1720.186523	5034.401855
1719.201172	5076.429688
1718.214844	4953.655762
1717.228516	5048.909668
1716.242188	5106.111816
1715.254883	5251.961914
1714.267578	5129.255371
1713.281250	5092.703613
1712.292969	5048.571777
1711.305664	4996.864746
1710.318359	5215.975098
1709.330078	5116.179688
1708.341797	5183.387695
1707.353516	5065.937012
1706.364258	5092.668945
1705.375977	5144.669922
1704.386719	5201.704102
1703.397461	5296.618652
1702.407227	5244.957520
1701.417969	5286.777344
1700.427734	5401.815918
1699.437500	5342.590332
1698.447266	5195.039063
1697.457031	5370.593750
1696.465820	5452.713867
1695.475586	5486.867188
1694.483398	5460.474121
1693.492188	5393.746582
1692.500977	5589.239746
1691.508789	5388.923828
1690.516602	5410.454102
1689.524414	5598.259766
1688.532227	5471.119141
1687.539063	5555.577148
1686.546875	5665.178223
1685.553711	5726.902832
1684.560547	5735.749023
1683.566406	5528.193848
1682.573242	5781.102051
1681.579102	5772.324219
1680.584961	5688.110352
1679.589844	5835.230469
1678.595703	5693.227051
1677.600586	5797.561523
1676.605469	5798.838379
1675.610352	5973.440430
1674.615234	5823.994141
1673.619141	5837.818848
1672.624023	5746.202637
1671.627930	5958.313965
1670.630859	5901.840820
1669.634766	5770.128906
1668.637695	5826.589844
1667.640625	5895.564453
1666.643555	5889.295410
1665.646484	5867.988770
1664.649414	5781.533203
1663.651367	5812.875000
1662.653320	5701.417480
1661.655273	5815.410645
1660.656250	5824.189453
1659.658203	5857.998535
1658.659180	5644.007324
1657.660156	5850.501953
1656.661133	5789.213867
1655.661133	5767.972656
1654.661133	5766.746094
1653.662109	5828.025879
1652.661133	5784.291992
1651.661133	5743.075684
1650.660156	5804.320313
1649.660156	5773.109375
1648.659180	5721.931152
1647.657227	5770.655762
1646.656250	5694.534180
1645.654297	5775.691406
1644.653320	5834.354980
1643.650391	5778.227051
1642.648438	5959.089844
1641.646484	5922.909668
1640.643555	5946.584473
1639.640625	6020.105469
1638.637695	6023.811523
1637.633789	6020.040039
1636.630859	5901.674805
1635.626953	5995.067383
1634.623047	5762.209961
1633.619141	5688.787598
1632.614258	5759.763184
1631.609375	5770.982910
1630.604492	5625.451660
1629.599609	5716.295410
1628.594727	5807.100098
1627.588867	5810.840332
1626.583984	5667.909180
1625.578125	5520.067383
1624.571289	5605.866211
1623.565430	5567.411133
1622.558594	5623.357422
1621.551758	5562.564941
1620.544922	5638.350098
1619.538086	5540.346680
1618.530273	5524.280762
1617.523438	5679.422852
1616.515625	5688.140137
1615.506836	5672.052734
1614.499023	5613.818359
1613.490234	5563.045898
1612.481445	5784.935059
1611.472656	5644.938477
1610.463867	5700.723145
1609.455078	5662.359375
1608.445313	5866.703125
1607.435547	6113.050781
1606.425781	6163.737305
1605.415039	6444.565430
1604.405273	6539.697754
1603.394531	6854.959961
1602.383789	6898.024902
1601.373047	6636.920898
1600.361328	6457.511230
1599.349609	6441.311523
1598.337891	6229.893555
1597.326172	6001.270020
1596.314453	6116.094238
1595.301758	5835.729004
1594.289063	5765.356445
1593.276367	5704.887695
1592.263672	5829.548828
1591.250977	5769.091797
1590.237305	5716.061035
1589.223633	5665.519043
1588.209961	5701.307129
1587.196289	5668.047363
1586.181641	5701.354004
1585.166992	5653.321289
1584.152344	5713.719238
1583.137695	5739.604492
1582.122070	5706.370117
1581.107422	5774.104492
1580.091797	5770.418457
1579.076172	5606.751465
1578.059570	5578.494141
1577.043945	5710.162598
1576.027344	5644.999512
1575.010742	5707.740723
1573.994141	5758.162109
1572.976563	5874.930664
1571.959961	5657.415039
1570.942383	5648.844238
1569.924805	5775.387207
1568.906250	5624.343750
1567.888672	5699.271973
1566.870117	5742.252930
1565.851563	5822.032715
1564.833008	5810.981934
1563.814453	5667.449707
1562.794922	5776.628906
1561.775391	5785.212891
1560.755859	5889.416504
1559.736328	5799.917969
1558.715820	5869.762207
1557.695313	5746.000488
1556.674805	5837.874023
1555.654297	5839.084473
1554.633789	5786.421387
1553.612305	5807.228027
1552.590820	5886.770508
1551.569336	5863.496582
1550.547852	5813.318359
1549.525391	5885.469727
1548.502930	5955.144043
1547.480469	5934.319336
1546.458008	5874.389160
1545.435547	5792.487305
1544.412109	5796.145020
1543.388672	5934.168457
1542.365234	5910.925781
1541.341797	5975.605469
1540.317383	5822.963867
1539.293945	5912.043945
1538.269531	5835.134277
1537.244141	5936.372559
1536.219727	5886.323730
1535.194336	5919.218262
1534.168945	5986.235840
1533.143555	5865.509277
1532.118164	5934.946289
1531.092773	5697.312988
1530.066406	5905.625977
1529.040039	5870.270020
1528.013672	5856.846680
1526.986328	5840.993652
1525.958984	5951.728027
1524.932617	5896.921387
1523.904297	5975.963867
1522.876953	6025.780762
1521.849609	5980.720703
1520.821289	5930.816406
1519.792969	5885.794922
1518.764648	5918.572754
1517.735352	6009.658691
1516.706055	5996.232910
1515.677734	5939.089355
1514.647461	5911.112305
1513.618164	6067.677734
1512.587891	6010.554199
1511.558594	5958.308594
1510.528320	6073.513184
1509.497070	5972.755859
1508.466797	6102.460449
1507.435547	5996.889160
1506.404297	5942.275879
1505.373047	6173.707031
1504.341797	6099.691406
1503.309570	6032.975098
1502.277344	6128.585449
1501.245117	6192.670898
1500.212891	6162.296875
1499.180664	6042.364746
1498.147461	6154.832031
1497.114258	6182.559082
1496.081055	6353.010742
1495.046875	6208.950684
1494.013672	6166.518066
1492.979492	6440.825195
1491.945313	6175.977051
1490.911133	6160.160645
1489.875977	6477.784180
1488.840820	6358.036133
1487.805664	6361.511230
1486.770508	6483.301758
1485.735352	6382.940430
1484.699219	6417.783691
1483.663086	6462.264160
1482.626953	6456.060547
1481.590820	6534.281738
1480.553711	6380.960449
1479.516602	6531.494629
1478.479492	6636.164063
1477.442383	6613.057617
1476.405273	6698.388184
1475.367188	6675.277832
1474.329102	6625.684082
1473.291016	6845.800781
1472.252930	6851.561523
1471.213867	6859.726074
1470.174805	6701.844727
1469.135742	6938.597168
1468.096680	6946.736328
1467.056641	7070.305176
1466.017578	7056.772949
1464.977539	7269.206543
1463.936523	7176.326660
1462.896484	7234.863281
1461.855469	7250.132813
1460.814453	7339.850586
1459.773438	7400.714355
1458.732422	7454.348633
1457.690430	7438.353027
1456.649414	7532.750977
1455.607422	7502.349121
1454.564453	7575.103516
1453.522461	7578.278809
1452.479492	7425.603516
1451.436523	7678.113281
1450.393555	7798.698242
1449.350586	7765.878906
1448.306641	7594.126465
1447.262695	7652.377930
1446.218750	7557.349121
1445.174805	7488.695801
1444.129883	7405.709961
1443.085938	7418.480957
1442.041016	7514.985352
1440.995117	7365.068359
1439.950195	7267.828613
1438.904297	7199.321777
1437.858398	7214.511230
1436.812500	7148.434082
1435.766602	7211.416504
1434.719727	7135.811523
1433.672852	7225.041016
1432.625977	7326.170898
1431.579102	7133.604980
1430.532227	7179.811523
1429.484375	7047.018066
1428.436523	7343.739746
1427.388672	7232.435059
1426.339844	7428.824219
1425.291992	7322.316895
1424.243164	7194.400391
1423.193359	7250.053223
1422.144531	7284.236816
1421.095703	7239.789063
1420.045898	7378.757324
1418.996094	7324.782227
1417.945313	7282.733398
1416.895508	7226.420898
1415.844727	7274.840332
1414.793945	7258.999023
1413.743164	7138.500977
1412.691406	7441.372559
1411.640625	7556.276367
1410.588867	7224.222168
1409.537109	7360.512207
1408.484375	7420.705566
1407.432617	7526.009766
1406.379883	7389.005859
1405.327148	7399.285645
1404.274414	7229.129395
1403.220703	7415.083496
1402.166992	7418.229980
1401.113281	7592.198730
1400.059570	7298.798340
1399.005859	7489.317383
1397.951172	7482.958496
1396.896484	7322.518555
1395.841797	7420.477051
1394.786133	7428.352051
1393.731445	7365.153809
1392.675781	7439.353027
1391.620117	7279.092285
1390.563477	7367.481445
1389.507813	7320.916992
1388.451172	7234.142578
1387.394531	7360.336426
1386.337891	7290.147949
1385.280273	7087.555176
1384.222656	7249.162598
1383.165039	7183.769043
1382.107422	7186.940430
1381.049805	7294.074219
1379.991211	7193.276367
1378.932617	7198.803223
1377.874023	7258.637207
1376.815430	7264.145996
1375.755859	7194.123047
1374.696289	7152.447266
1373.636719	7278.295410
1372.577148	7135.191895
1371.516602	7110.061523
1370.456055	7150.957520
1369.395508	7182.405762
1368.334961	7032.374512
1367.274414	7099.176758
1366.212891	7137.680664
1365.151367	7091.381836
1364.089844	7049.812012
1363.027344	7097.716309
1361.965820	7124.416504
1360.903320	7146.398438
1359.839844	7074.265625
1358.777344	6955.122070
1357.713867	7042.968750
1356.651367	7083.754883
1355.586914	7122.171875
1354.523438	7099.470215
1353.459961	7126.118164
1352.395508	7119.867676
1351.331055	6972.708984
1350.265625	7168.420410
1349.201172	7267.799316
1348.135742	7296.724609
1347.070313	7093.337891
1346.004883	7274.773926
1344.938477	7249.731934
1343.873047	7203.596191
1342.806641	7225.467285
1341.739258	7369.210938
1340.672852	7360.570801
1339.605469	7237.133301
1338.538086	7294.110840
1337.470703	7325.302246
1336.403320	7351.796387
1335.334961	7146.536621
1334.266602	7236.245605
1333.198242	7372.710449
1332.129883	7298.578613
1331.060547	7376.499023
1329.992188	7342.147949
1328.921875	7427.036621
1327.852539	7345.943359
1326.783203	7613.057129
1325.712891	7246.938477
1324.642578	7280.385254
1323.572266	7316.151367
1322.500977	7337.893066
1321.429688	7450.657227
1320.358398	7362.676270
1319.287109	7326.062988
1318.215820	7478.407227
1317.143555	7423.125977
1316.071289	7458.800781
1314.999023	7419.863770
1313.925781	7469.505371
1312.853516	7402.621094
1311.780273	7473.208984
1310.706055	7336.479980
1309.632813	7535.119141
1308.558594	7382.139160
1307.485352	7545.766602
1306.410156	7348.637207
1305.335938	7461.015625
1304.260742	7577.995605
1303.186523	7492.608887
1302.110352	7590.929199
1301.035156	7461.411621
1299.958984	7452.793457
1298.883789	7667.225098
1297.807617	7542.419434
1296.730469	7656.873047
1295.654297	7664.469238
1294.577148	7597.778320
1293.500000	7598.419922
1292.422852	7666.350098
1291.344727	7527.785645
1290.266602	7702.387695
1289.188477	7556.918945
1288.110352	7671.159668
1287.031250	7783.031738
1285.953125	7716.425293
1284.874023	7696.182617
1283.793945	7889.039551
1282.714844	7766.874512
1281.634766	7693.381836
1280.554688	7909.255371
1279.474609	7784.850098
1278.393555	7801.631836
1277.313477	7917.870117
1276.232422	7712.601563
1275.151367	7916.666504
1274.069336	7921.842285
1272.987305	7996.347656
1271.905273	7876.731445
1270.823242	7937.351563
1269.741211	8000.252930
1268.658203	7919.966309
1267.575195	8146.746582
1266.492188	8147.240723
1265.409180	8023.129883
1264.325195	8090.551758
1263.241211	8234.055664
1262.157227	8153.818359
1261.072266	8205.025391
1259.988281	8099.474121
1258.903320	8134.537109
1257.818359	8047.478027
1256.732422	8121.692871
1255.647461	8069.216309
1254.561523	8074.320801
1253.474609	8215.229492
1252.388672	8167.367188
1251.301758	8181.646973
1250.214844	8216.621094
1249.127930	8359.668945
1248.041016	8261.228516
1246.953125	8319.146484
1245.865234	8321.879883
1244.777344	8198.237305
1243.689453	8354.906250
1242.600586	8132.552246
1241.511719	8348.864258
1240.422852	8216.139648
1239.333984	8156.917480
1238.244141	8145.908203
1237.154297	8421.666016
1236.064453	8263.810547
1234.974609	8287.177734
1233.883789	8216.538086
1232.792969	8141.345215
1231.702148	8302.212891
1230.610352	8071.243652
1229.519531	8055.684082
1228.427734	8131.729980
1227.335938	8081.820313
1226.243164	7853.393066
1225.151367	7892.815430
1224.058594	7971.113281
1222.965820	7946.441895
1221.872070	8111.592285
1220.778320	7938.283691
1219.685547	7744.479980
1218.590820	8042.110840
1217.497070	8012.876465
1216.402344	7894.565918
1215.307617	7924.754395
1214.212891	7792.815918
1213.118164	7978.239746
1212.022461	7967.305176
1210.926758	7983.755859
1209.831055	8045.821777
1208.734375	8016.631348
1207.638672	7919.047363
1206.541992	7896.735352
1205.444336	8040.810059
1204.347656	8027.592773
1203.250000	8023.493652
1202.152344	8008.006836
1201.054688	7974.309570
1199.956055	7863.223633
1198.858398	7922.889648
1197.759766	7845.996582
1196.660156	8069.437988
1195.561523	8008.465820
1194.461914	8068.040527
1193.362305	8041.196289
1192.262695	7927.991699
1191.162109	7982.996094
1190.061523	8131.122070
1188.960938	7986.171875
1187.860352	8136.498535
1186.758789	8121.020020
1185.658203	8069.230957
1184.555664	8115.044434
1183.454102	8178.985840
1182.351563	8245.166016
1181.250000	8202.461914
1180.146484	8279.939453
1179.043945	8268.979492
1177.940430	8289.749023
1176.837891	8231.209961
1175.733398	8177.227051
1174.629883	8204.793945
1173.525391	8211.970703
1172.420898	8201.034180
1171.316406	8316.833984
1170.211914	8233.474609
1169.106445	8389.927734
1168.000977	8390.263672
1166.895508	8191.629395
1165.789063	8413.536133
1164.682617	8429.681641
1163.576172	8472.933594
1162.469727	8285.751953
1161.363281	8466.777344
1160.255859	8498.697266
1159.148438	8293.577148
1158.040039	8390.967773
1156.932617	8483.800781
1155.824219	8407.403320
1154.715820	8479.888672
1153.607422	8306.570313
1152.498047	8381.297852
1151.388672	8406.407227
1150.279297	8352.642578
1149.168945	8262.857422
1148.059570	8283.469727
1146.949219	8533.738281
1145.838867	8266.131836
1144.727539	8311.482422
1143.616211	8244.305664
1142.504883	8258.143555
1141.393555	8260.728516
1140.282227	8526.387695
1139.169922	8441.235352
1138.057617	8419.049805
1136.944336	8349.687500
1135.832031	8345.502930
1134.718750	8312.122070
1133.605469	8447.160156
1132.491211	8380.095703
1131.377930	8387.125000
1130.263672	8389.662109
1129.149414	8423.602539
1128.034180	8450.797852
1126.919922	8325.505859
1125.804688	8368.401367
1124.688477	8507.647461
1123.573242	8422.758789
1122.457031	8398.392578
1121.340820	8542.009766
1120.224609	8437.015625
1119.107422	8499.964844
1117.990234	8412.932617
1116.873047	8480.331055
1115.755859	8480.584961
1114.637695	8445.053711
1113.519531	8617.484375
1112.401367	8532.754883
1111.283203	8698.376953
1110.164063	8707.511719
1109.044922	8622.816406
1107.925781	8783.831055
1106.805664	8708.086914
1105.685547	8822.124023
1104.565430	8773.184570
1103.445313	8699.723633
1102.324219	8764.602539
1101.204102	8871.823242
1100.082031	8818.454102
1098.960938	8834.212891
1097.838867	8881.164063
1096.716797	8896.897461
1095.594727	8861.388672
1094.472656	8981.789063
1093.349609	8988.578125
1092.226563	9028.752930
1091.103516	9108.965820
1089.979492	9024.492188
1088.855469	9231.458984
1087.731445	9260.413086
1086.607422	9287.128906
1085.482422	9338.282227
1084.357422	9429.412109
1083.232422	9422.736328
1082.106445	9493.808594
1080.981445	9515.988281
1079.855469	9662.490234
1078.728516	9651.321289
1077.602539	9808.813477
1076.475586	9946.262695
1075.348633	10063.681641
1074.220703	9992.545898
1073.093750	10078.855469
1071.965820	10338.013672
1070.837891	10113.953125
1069.708984	10080.530273
1068.580078	10033.832031
1067.451172	10186.455078
1066.322266	9798.807617
1065.192383	9882.794922
1064.062500	9794.137695
1062.932617	9694.458984
1061.802734	9765.135742
1060.671875	9711.945313
1059.541016	9481.918945
1058.410156	9618.898438
1057.278320	9439.823242
1056.147461	9353.618164
1055.015625	9373.467773
1053.882813	9490.461914
1052.750977	9410.924805
1051.618164	9607.305664
1050.484375	9518.949219
1049.351563	9525.491211
1048.217773	9626.863281
1047.083984	9518.716797
1045.950195	9509.818359
1044.815430	9527.370117
1043.680664	9732.195313
1042.545898	9648.351563
1041.411133	9786.978516
1040.275391	9716.369141
1039.139648	9846.104492
1038.003906	9751.304688
1036.867188	9916.167969
1035.730469	9988.566406
1034.593750	9999.352539
1033.457031	9845.238281
1032.319336	9917.595703
1031.181641	9939.374023
1030.043945	10011.670898
1028.906250	10088.324219
1027.767578	10162.742188
1026.628906	10206.387695
1025.489258	10061.251953
1024.350586	9764.775391
1023.210938	10019.084961
1022.071289	9863.127930
1020.930664	9573.489258
1019.790039	9562.398438
1018.649414	9516.244141
1017.508789	9577.477539
1016.367188	9555.435547
1015.225586	9570.634766
1014.083984	9690.922852
1012.942383	9614.139648
1011.799805	9583.349609
1010.657227	9594.144531
1009.514648	9753.676758
1008.371094	10013.726563
1007.227539	10623.462891
1006.083984	11388.092773
1004.939453	12346.837891
1003.795898	13130.333008
1002.651367	12963.310547
1001.505859	12412.039063
1000.361328	11378.560547
999.215820	10572.576172
998.070313	10199.036133
996.923828	10187.813477
995.777344	9864.709961
994.630859	9775.074219
993.484375	10073.509766
992.336914	9948.993164
991.189453	9892.080078
990.041992	9928.862305
988.894531	9987.402344
987.746094	9947.934570
986.597656	9886.717773
985.448242	9903.872070
984.299805	9864.449219
983.150391	10086.058594
982.000977	10244.494141
980.850586	10152.833984
979.700195	10380.724609
978.549805	10349.916016
977.399414	10460.329102
976.248047	10887.785156
975.096680	11060.977539
973.945313	11181.982422
972.792969	11856.351563
971.640625	12298.220703
970.488281	12939.438477
969.335938	13489.250977
968.182617	14572.154297
967.029297	15132.123047
965.875977	16042.878906
964.721680	17098.337891
963.567383	17884.685547
962.413086	18856.871094
961.258789	19098.988281
960.103516	19351.804688
958.948242	19214.998047
957.791992	18903.029297
956.636719	18268.957031
955.480469	17546.544922
954.323242	16381.342773
953.166992	15677.044922
952.009766	14785.121094
950.852539	14366.697266
949.694336	13842.662109
948.537109	13452.744141
947.378906	12812.636719
946.219727	12759.801758
945.061523	12033.887695
943.902344	11539.116211
942.743164	11581.509766
941.583008	11585.077148
940.422852	11252.424805
939.262695	11176.344727
938.102539	10809.491211
936.941406	10832.622070
935.780273	10707.178711
934.619141	10657.133789
933.457031	10398.370117
932.294922	10471.055664
931.132813	10225.371094
929.970703	10190.541992
928.807617	10226.672852
927.644531	10260.633789
926.480469	9967.969727
925.317383	10212.498047
924.153320	10087.504883
922.988281	10016.251953
921.824219	10037.334961
920.659180	10174.290039
919.494141	9802.695313
918.328125	9954.652344
917.162109	9883.512695
915.996094	9913.167969
914.830078	9953.523438
913.663086	9991.713867
912.496094	9950.620117
911.329102	9896.696289
910.161133	9780.704102
908.993164	9765.376953
907.825195	9850.638672
906.656250	9783.949219
905.487305	9867.020508
904.318359	9667.775391
903.149414	9733.726563
901.979492	9694.913086
900.809570	9805.692383
899.639648	9698.516602
898.468750	9847.677734
897.297852	9778.974609
896.126953	9674.017578
894.955078	9835.868164
893.783203	9809.885742
892.611328	9760.452148
891.439453	9934.946289
890.266602	9964.381836
889.093750	10089.709961
887.919922	9871.915039
886.746094	9973.766602
885.572266	9939.262695
884.398438	9851.546875
883.223633	9863.917969
882.048828	10050.780273
880.874023	10077.982422
879.698242	10107.295898
878.523438	10072.799805
877.346680	10248.779297
876.170898	10258.892578
874.994141	10096.891602
873.817383	9977.457031
872.639648	10004.615234
871.462891	10065.726563
870.285156	10224.444336
869.106445	10124.189453
867.927734	9970.948242
866.749023	10025.635742
865.570313	10071.810547
864.390625	10101.000977
863.210938	10098.385742
862.031250	10205.943359
860.851563	10199.061523
859.670898	10209.122070
858.490234	10348.317383
857.308594	10288.484375
856.126953	10499.526367
854.945313	10365.640625
853.763672	10466.575195
852.581055	10506.138672
851.398438	10526.655273
850.214844	10325.269531
849.032227	10493.707031
847.847656	10288.207031
846.664063	10372.097656
845.479492	10284.950195
844.294922	10442.661133
843.110352	10416.723633
841.924805	10268.454102
840.740234	10310.054688
839.553711	10317.898438
838.368164	10235.103516
837.181641	10242.958984
835.995117	10288.727539
834.807617	10227.059570
833.620117	10272.803711
832.432617	10228.008789
831.245117	10246.367188
830.056641	10161.624023
828.868164	10310.391602
827.678711	10072.171875
826.489258	9989.637695
825.299805	10239.205078
824.110352	10179.778320
822.919922	10084.671875
821.729492	10367.610352
820.539063	10188.523438
819.347656	10305.469727
818.156250	10359.402344
816.964844	10545.463867
815.772461	10507.023438
814.580078	10632.140625
813.387695	10771.861328
812.194336	10624.416016
811.000977	10743.111328
809.807617	10411.436523
808.613281	10400.299805
807.418945	10234.261719
806.224609	10233.636719
805.029297	10212.088867
803.833984	10104.791992
802.638672	9909.723633
801.443359	9873.638672
800.247070	9871.010742
799.050781	9713.763672
797.853516	9884.551758
796.656250	9911.153320
795.458984	9718.523438
794.260742	9912.125977
793.063477	9621.522461
791.864258	9719.083984
790.666016	9628.893555
789.466797	9740.992188
788.267578	9744.638672
787.067383	9785.791016
785.868164	9731.086914
784.666992	9880.518555
783.466797	9711.294922
782.265625	9866.892578
781.064453	9901.703125
779.863281	9880.318359
778.661133	9844.384766
777.458984	9706.577148
776.255859	9724.754883
775.052734	9844.754883
773.849609	9702.897461
772.646484	9820.756836
771.442383	9782.807617
770.238281	9813.385742
769.033203	9787.907227
767.829102	9795.638672
766.623047	9618.747070
765.417969	9811.083008
764.211914	9872.699219
763.005859	9948.789063
761.799805	9676.721680
760.592773	9678.244141
759.385742	9733.608398
758.177734	9933.870117
756.969727	9668.302734
755.761719	9785.697266
754.553711	9801.658203
753.344727	9705.926758
752.135742	9819.073242
750.925781	9837.072266
749.716797	9832.328125
748.505859	9868.903320
747.295898	9756.750000
746.084961	9782.997070
744.874023	9914.503906
743.662109	9713.685547
742.451172	9888.459961
741.238281	9677.442383
740.026367	9734.593750
738.813477	9855.616211
737.600586	9572.643555
736.386719	9854.341797
735.172852	9707.461914
733.958984	9861.296875
732.745117	9842.124023
731.530273	9905.279297
730.314453	9733.848633
729.099609	9842.247070
727.883789	9816.922852
726.667969	9684.709961
725.451172	9725.204102
724.234375	9757.456055
