#Wave		#Intensity
1819.770508	1915.718994
1818.805664	1944.234375
1817.841797	2008.602661
1816.876953	2013.345825
1815.912109	1917.052979
1814.946289	2064.266602
1813.981445	2004.257446
1813.015625	1928.741089
1812.049805	1995.616943
1811.083008	2010.707886
1810.117188	2012.856079
1809.150391	2012.416870
1808.183594	2050.769043
1807.216797	2003.782349
1806.250000	1995.590454
1805.282227	2101.115723
1804.314453	2074.819336
1803.346680	2064.034180
1802.378906	2058.418945
1801.411133	2086.374268
1800.442383	2103.991211
1799.473633	2111.276123
1798.504883	2113.396973
1797.536133	2063.919189
1796.567383	2014.462769
1795.597656	2083.651611
1794.627930	2016.164917
1793.658203	2051.813721
1792.687500	2020.442627
1791.717773	2115.335449
1790.747070	2083.964355
1789.776367	2047.455811
1788.805664	2057.310547
1787.833984	2103.201416
1786.863281	2089.876221
1785.891602	2130.593750
1784.919922	2096.687256
1783.947266	2101.376709
1782.975586	2157.494141
1782.002930	2077.327148
1781.030273	2164.270264
1780.057617	2109.834717
1779.084961	2122.223877
1778.111328	2147.451416
1777.137695	2059.668701
1776.164063	2228.685059
1775.190430	2102.416992
1774.215820	2160.991455
1773.242188	2168.221680
1772.267578	2185.710449
1771.292969	2136.505859
1770.317383	2166.815186
1769.342773	2166.346924
1768.367188	2158.188965
1767.391602	2198.724609
1766.416016	2231.556396
1765.439453	2195.213135
1764.463867	2230.592529
1763.487305	2201.946289
1762.510742	2285.946045
1761.534180	2208.673828
1760.556641	2192.844727
1759.579102	2220.511719
1758.602539	2217.475098
1757.624023	2240.010742
1756.646484	2196.066406
1755.667969	2152.141357
1754.690430	2243.673096
1753.711914	2258.519043
1752.732422	2278.467041
1751.753906	2321.390625
1750.774414	2303.017822
1749.794922	2174.887695
1748.815430	2266.296387
1747.835938	2235.189453
1746.856445	2244.912598
1745.875977	2229.126465
1744.895508	2294.945313
1743.915039	2307.198730
1742.933594	2271.018799
1741.953125	2400.493408
1740.971680	2292.971924
1739.990234	2338.328613
1739.008789	2289.439697
1738.026367	2395.884277
1737.044922	2380.096191
1736.062500	2315.959717
1735.080078	2422.329834
1734.096680	2467.600098
1733.114258	2449.266846
1732.130859	2463.998047
1731.147461	2445.673096
1730.164063	2447.690186
1729.179688	2416.670654
1728.196289	2428.855469
1727.211914	2547.719238
1726.227539	2638.596680
1725.243164	2541.548584
1724.257813	2591.772949
1723.272461	2608.982910
1722.288086	2674.395508
1721.301758	2579.959717
1720.316406	2640.277832
1719.331055	2700.570313
1718.344727	2621.400391
1717.358398	2638.581787
1716.372070	2650.687256
1715.384766	2566.511963
1714.397461	2685.015137
1713.411133	2717.362793
1712.422852	2592.715820
1711.435547	2678.228760
1710.448242	2639.692871
1709.459961	2626.476563
1708.471680	2694.218994
1707.483398	2744.227783
1706.494141	2700.653076
1705.505859	2765.807861
1704.516602	2823.351807
1703.527344	2774.733887
1702.538086	2822.145264
1701.547852	2841.750244
1700.558594	2762.853760
1699.568359	2860.735596
1698.578125	2781.868652
1697.586914	2899.895020
1696.596680	2977.498291
1695.605469	3007.135742
1694.614258	3072.071533
1693.623047	2925.157959
1692.630859	2990.083496
1691.639648	3004.569092
1690.647461	3056.849609
1689.655273	3131.783447
1688.663086	3211.723145
1687.669922	3150.594971
1686.676758	3245.604248
1685.684570	3106.455811
1684.690430	3191.366211
1683.697266	3203.267334
1682.703125	3222.710693
1681.709961	3375.453369
1680.715820	3394.851563
1679.720703	3338.816406
1678.726563	3421.054688
1677.731445	3347.446045
1676.736328	3278.893555
1675.741211	3393.748291
1674.746094	3362.887451
1673.750000	3332.039795
1672.754883	3341.371826
1671.758789	3330.620605
1670.762695	3302.308594
1669.765625	3411.993652
1668.769531	3408.758789
1667.772461	3408.033203
1666.775391	3349.641846
1665.777344	3368.982422
1664.780273	3252.982666
1663.782227	3319.941895
1662.784180	3148.889893
1661.786133	3268.438477
1660.788086	3315.319336
1659.789063	3196.950439
1658.790039	3173.743896
1657.791016	3263.156006
1656.791992	3217.427979
1655.792969	3241.757324
1654.792969	3208.557373
1653.792969	3130.365967
1652.792969	3249.688965
1651.792969	3201.512695
1650.791992	3250.806152
1649.791016	3272.598633
1648.791016	3199.471680
1647.789063	3246.236816
1646.788086	3218.084473
1645.786133	3379.643555
1644.784180	3531.151855
1643.782227	3445.572021
1642.780273	3562.079346
1641.778320	3583.768066
1640.775391	3725.130127
1639.772461	3659.524414
1638.769531	3583.977051
1637.765625	3575.740479
1636.762695	3477.821289
1635.758789	3469.610352
1634.754883	3409.108398
1633.750977	3333.693848
1632.746094	3328.007568
1631.742188	3192.914795
1630.737305	3152.427246
1629.732422	3037.329590
1628.726563	3136.166748
1627.721680	3045.986328
1626.715820	3010.535889
1625.709961	3029.780518
1624.704102	3078.836182
1623.697266	2958.931152
1622.691406	2940.915771
1621.684570	2989.958740
1620.677734	2949.599121
1619.670898	2931.596924
1618.663086	2988.055664
1617.655273	2935.315430
1616.647461	2989.268555
1615.639648	2916.708740
1614.631836	2938.406738
1613.623047	3046.865723
1612.614258	2897.502197
1611.605469	2973.708252
1610.596680	2844.244141
1609.586914	2969.969727
1608.578125	2949.527588
1607.568359	2988.517578
1606.558594	2958.178223
1605.547852	3148.120850
1604.538086	3016.309326
1603.527344	3042.882324
1602.516602	2980.402832
1601.505859	3189.961914
1600.494141	3013.750977
1599.482422	3030.414307
1598.471680	2938.334717
1597.458984	2935.240723
1596.447266	2922.267090
1595.435547	2867.314209
1594.422852	2869.175293
1593.410156	2967.312500
1592.396484	2892.639648
1591.383789	2909.299316
1590.370117	2948.155518
1589.356445	2836.535400
1588.342773	2974.031494
1587.329102	2966.004395
1586.315430	2940.725342
1585.300781	2908.063721
1584.286133	2919.766846
1583.271484	2936.391357
1582.255859	2891.436523
1581.240234	2878.511475
1580.225586	2961.604004
1579.209961	2810.834961
1578.193359	3014.485596
1577.177734	2880.990967
1576.161133	2877.920166
1575.144531	2865.013672
1574.127930	2869.323486
1573.110352	2893.296875
1572.093750	2865.648682
1571.076172	2941.212646
1570.058594	2891.456299
1569.040039	2920.316406
1568.022461	2877.951904
1567.003906	2879.796387
1565.985352	2947.912842
1564.966797	2966.919922
1563.948242	2882.871338
1562.928711	2887.165527
1561.909180	2876.743408
1560.889648	2878.584961
1559.870117	2978.482666
1558.849609	2874.912842
1557.830078	2962.516846
1556.809570	2947.188965
1555.788086	2895.127441
1554.767578	2926.347900
1553.746094	2986.934570
1552.725586	2942.240479
1551.704102	2904.907227
1550.681641	2985.033447
1549.660156	2849.857422
1548.637695	3059.583496
1547.615234	2858.428467
1546.592773	3004.502197
1545.569336	2940.316406
1544.546875	2981.234131
1543.523438	2877.990479
1542.500000	2957.985107
1541.476563	2874.326416
1540.452148	2829.768311
1539.427734	2946.337402
1538.403320	2940.830811
1537.378906	2976.806396
1536.354492	2949.339844
1535.329102	2934.079834
1534.303711	2977.348633
1533.278320	2988.906006
1532.252930	2946.835205
1531.227539	2987.636475
1530.201172	2887.110352
1529.174805	2915.727295
1528.148438	2934.590576
1527.121094	2938.836914
1526.094727	2923.606445
1525.067383	2983.830078
1524.040039	3026.994873
1523.011719	3072.574219
1521.984375	2930.851074
1520.956055	3022.633789
1519.927734	2941.761230
1518.899414	2958.150879
1517.871094	3045.008301
1516.841797	3071.087158
1515.812500	3024.280273
1514.783203	3028.494629
1513.753906	3001.141357
1512.723633	2976.227051
1511.693359	3065.395996
1510.663086	3011.359619
1509.632813	3056.813965
1508.602539	3063.440186
1507.571289	3074.913330
1506.540039	2989.401855
1505.508789	3100.268799
1504.477539	3053.563232
1503.445313	3067.450928
1502.413086	3006.237305
1501.380859	3024.972656
1500.348633	3096.970703
1499.316406	3144.729004
1498.283203	3192.466797
1497.250000	3177.267822
1496.216797	3166.913818
1495.182617	3173.495605
1494.149414	3056.740967
1493.115234	3065.760986
1492.081055	3101.366943
1491.046875	3066.871582
1490.011719	3230.522705
1488.976563	3193.598389
1487.942383	3233.976318
1486.906250	3163.260498
1485.871094	3256.739502
1484.834961	3277.768311
1483.798828	3187.782471
1482.762695	3428.366943
1481.726563	3290.144531
1480.690430	3299.089111
1479.653320	3346.607422
1478.616211	3355.535645
1477.579102	3470.503174
1476.541016	3448.076660
1475.503906	3555.747559
1474.465820	3550.171631
1473.427734	3568.677979
1472.388672	3654.585938
1471.350586	3639.363770
1470.311523	3737.251953
1469.272461	3705.176270
1468.233398	3709.195801
1467.193359	3924.847168
1466.153320	3777.339111
1465.113281	3817.398438
1464.073242	3905.508057
1463.033203	4027.219971
1461.992188	3985.518799
1460.951172	3984.666748
1459.910156	4007.828125
1458.869141	4069.392334
1457.828125	4102.126465
1456.786133	4101.249023
1455.744141	4153.155762
1454.702148	4075.506592
1453.659180	4024.270996
1452.616211	4066.569092
1451.574219	4056.109619
1450.530273	4119.952637
1449.487305	4246.069336
1448.443359	4103.814453
1447.400391	4126.887207
1446.356445	4008.664551
1445.311523	4084.418701
1444.267578	3956.680664
1443.222656	4034.805908
1442.177734	4115.289551
1441.132813	4033.076172
1440.087891	3996.337891
1439.041992	3911.793457
1437.996094	3946.812744
1436.950195	3781.052979
1435.904297	3811.305908
1434.857422	3693.426025
1433.810547	3800.116211
1432.763672	3804.076660
1431.716797	3824.747314
1430.668945	3769.025879
1429.622070	3856.515381
1428.574219	3722.074219
1427.526367	3757.056152
1426.477539	3787.252930
1425.428711	3810.283203
1424.380859	3776.089844
1423.332031	3715.693604
1422.282227	3748.255127
1421.233398	3835.596191
1420.183594	3672.805908
1419.133789	3752.981201
1418.083984	3730.746582
1417.033203	3720.422363
1415.982422	3762.458252
1414.931641	3828.268311
1413.880859	3791.762451
1412.830078	3771.919922
1411.778320	3747.330078
1410.726563	3908.175049
1409.674805	3840.784668
1408.623047	3958.767822
1407.570313	3862.886475
1406.517578	3862.053955
1405.464844	3880.218750
1404.412109	3945.858398
1403.359375	4018.590576
1402.305664	4084.171631
1401.251953	3910.088623
1400.198242	3833.337158
1399.143555	3946.346680
1398.089844	3739.209961
1397.035156	3861.672607
1395.979492	3742.335449
1394.924805	3786.548584
1393.870117	3790.468506
1392.814453	3645.168945
1391.758789	3776.990234
1390.702148	3657.798340
1389.646484	3718.549316
1388.589844	3601.787598
1387.533203	3724.038818
1386.476563	3666.462158
1385.418945	3859.594482
1384.362305	3783.097168
1383.304688	3770.458496
1382.246094	3755.461670
1381.188477	3827.898193
1380.129883	3763.284668
1379.071289	3774.278564
1378.012695	3839.578857
1376.954102	3798.612061
1375.894531	3698.654297
1374.835938	3775.726563
1373.776367	3765.470459
1372.715820	3797.676758
1371.656250	3728.462158
1370.595703	3623.910645
1369.535156	3689.127441
1368.474609	3695.396729
1367.413086	3654.537842
1366.352539	3611.340820
1365.291016	3756.580078
1364.228516	3680.412842
1363.166992	3576.028076
1362.104492	3667.044434
1361.041992	3666.246826
1359.979492	3686.623535
1358.916992	3617.608887
1357.853516	3666.206055
1356.790039	3745.346436
1355.726563	3718.674316
1354.663086	3715.514404
1353.599609	3599.574951
1352.535156	3789.066162
1351.470703	3750.663574
1350.405273	3731.061523
1349.340820	3765.461182
1348.275391	3680.146973
1347.209961	3838.907471
1346.144531	3748.921631
1345.079102	3851.305420
1344.012695	3831.704834
1342.946289	3884.791016
1341.879883	3965.981201
1340.812500	3819.821045
1339.746094	3875.217041
1338.678711	3946.985352
1337.611328	3936.754883
1336.542969	3889.065918
1335.475586	4052.077637
1334.407227	3969.277832
1333.338867	3849.076416
1332.270508	3827.179688
1331.201172	3966.672119
1330.131836	3841.872070
1329.062500	4002.339844
1327.993164	3858.887451
1326.922852	3918.798340
1325.853516	3857.196045
1324.783203	3776.934326
1323.711914	3825.146240
1322.641602	3856.993408
1321.570313	3825.802246
1320.499023	3801.625244
1319.427734	3929.116943
1318.356445	3914.257813
1317.284180	3864.422363
1316.211914	3826.266357
1315.139648	3839.412354
1314.066406	3796.616699
1312.994141	3926.269287
1311.920898	3785.628662
1310.847656	3833.706787
1309.773438	3732.733643
1308.700195	3794.770020
1307.625977	3777.641602
1306.551758	3839.639893
1305.476563	3794.589844
1304.402344	3823.991943
1303.327148	3883.612305
1302.251953	3840.906006
1301.176758	3977.203857
1300.100586	3922.874756
1299.024414	3854.628662
1297.948242	4058.197510
1296.872070	3945.824463
1295.794922	3921.733643
1294.718750	3983.545410
1293.641602	3873.582764
1292.563477	3821.677979
1291.486328	3997.143311
1290.408203	4054.243164
1289.330078	3870.157227
1288.251953	3924.940918
1287.172852	4037.645264
1286.094727	4013.578125
1285.015625	4017.322754
1283.935547	4507.484375
1282.856445	4485.643555
1281.776367	3989.184326
1280.696289	4062.371582
1279.616211	4075.355713
1278.536133	4127.666992
1277.455078	4078.173584
1276.374023	4116.583984
1275.292969	4131.854492
1274.210938	4278.883301
1273.129883	4307.977051
1272.047852	4186.866699
1270.965820	4162.834473
1269.882813	4219.648926
1268.799805	4283.364258
1267.717773	4358.594238
1266.633789	4198.367676
1265.550781	4259.736328
1264.466797	4122.672363
1263.382813	4137.899414
1262.298828	4298.397461
1261.214844	4237.496582
1260.129883	4225.026367
1259.044922	4177.994629
1257.959961	4418.977051
1256.875000	4344.280273
1255.789063	4396.277344
1254.703125	4425.226563
1253.617188	4410.426758
1252.531250	4489.989258
1251.444336	4449.870605
1250.357422	4545.489746
1249.270508	4519.174805
1248.183594	4416.993164
1247.095703	4567.725586
1246.007813	4566.702637
1244.919922	4478.364258
1243.832031	4433.712402
1242.743164	4361.519531
1241.654297	4293.950684
1240.565430	4439.913574
1239.476563	4397.603516
1238.386719	4281.882324
1237.296875	4237.331543
1236.207031	4371.705566
1235.117188	4361.550781
1234.026367	4408.715820
1232.935547	4430.645508
1231.844727	4315.069336
1230.753906	4201.835938
1229.662109	4063.456543
1228.570313	4206.814941
1227.478516	4155.497559
1226.386719	4058.422852
1225.293945	4075.816406
1224.201172	4015.410156
1223.108398	4064.828857
1222.015625	4075.346680
1220.921875	3960.105225
1219.828125	3950.067627
1218.734375	4020.023193
1217.640625	4089.946777
1216.545898	3940.538574
1215.451172	4024.150391
1214.356445	4020.957031
1213.261719	4056.572754
1212.166016	4057.937256
1211.070313	3988.564941
1209.974609	4115.413086
1208.877930	3991.320313
1207.782227	4108.988281
1206.685547	4014.588379
1205.587891	4050.145264
1204.491211	4192.783691
1203.393555	4061.976807
1202.295898	4051.944336
1201.198242	4000.927246
1200.100586	4018.231445
1199.001953	4010.490234
1197.903320	4055.090332
1196.804688	3963.165527
1195.705078	4069.167969
1194.605469	4063.693848
1193.505859	3999.110596
1192.406250	3909.552979
1191.306641	4095.005859
1190.206055	4057.721191
1189.105469	3988.653076
1188.004883	4076.309570
1186.903320	4029.971436
1185.801758	4056.290527
1184.700195	4082.596924
1183.598633	4040.825439
1182.496094	4087.537354
1181.393555	4152.369629
1180.291016	4106.074707
1179.188477	4100.602051
1178.084961	4022.610840
1176.981445	3960.515381
1175.877930	4111.378418
1174.774414	4047.025146
1173.669922	4073.268066
1172.565430	3988.578857
1171.460938	4127.979492
1170.356445	4136.083008
1169.250977	4114.774902
1168.145508	4188.462891
1167.040039	4149.062988
1165.933594	4132.285645
1164.828125	4223.997559
1163.721680	4213.988281
1162.614258	4192.688477
1161.507813	4153.329590
1160.400391	4141.083984
1159.292969	4250.744629
1158.185547	4331.014648
1157.077148	4280.375977
1155.969727	4254.574707
1154.860352	4077.676270
1153.751953	4191.731934
1152.642578	4069.031738
1151.534180	4079.361328
1150.424805	4132.498047
1149.314453	4136.048340
1148.204102	4020.229004
1147.094727	4111.619629
1145.983398	4106.166016
1144.873047	4152.479980
1143.761719	4138.017578
1142.650391	4119.062500
1141.539063	4284.541992
1140.427734	4247.571777
1139.315430	4183.641113
1138.203125	4160.195313
1137.089844	4192.935547
1135.977539	4160.511230
1134.864258	4262.859863
1133.750977	4190.015137
1132.637695	4247.409668
1131.523438	4217.244629
1130.409180	4216.263672
1129.294922	4248.933594
1128.180664	4281.586914
1127.065430	4157.262207
1125.950195	4266.142090
1124.834961	4271.871582
1123.718750	4203.653320
1122.603516	4256.437988
1121.487305	4179.294922
1120.370117	4252.212402
1119.253906	4228.833008
1118.136719	4234.559570
1117.019531	4298.460938
1115.902344	4272.847656
1114.784180	4260.665527
1113.666016	4306.625488
1112.547852	4330.208008
1111.428711	4335.898926
1110.310547	4410.855469
1109.191406	4362.908691
1108.072266	4453.456543
1106.952148	4407.753418
1105.832031	4531.732422
1104.711914	4519.509277
1103.591797	4612.164063
1102.471680	4553.079590
1101.350586	4556.469727
1100.229492	4501.884277
1099.107422	4621.203613
1097.986328	4644.631836
1096.864258	4659.135742
1095.741211	4560.021484
1094.619141	4779.433105
1093.496094	4787.212891
1092.373047	4743.788574
1091.250000	4840.593750
1090.125977	4877.276855
1089.002930	4980.677246
1087.878906	4886.093262
1086.753906	4996.111328
1085.629883	5030.497070
1084.504883	4978.191895
1083.378906	5139.211426
1082.253906	5229.070313
1081.127930	5336.652344
1080.001953	5248.796387
1078.875977	5556.101074
1077.749023	5643.553223
1076.623047	5608.933594
1075.496094	6062.333008
1074.368164	5841.344238
1073.241211	5879.865234
1072.113281	5929.450195
1070.984375	5897.015137
1069.856445	5997.528320
1068.727539	5781.242676
1067.598633	5757.721680
1066.469727	5780.704102
1065.339844	5560.194824
1064.210938	5651.812500
1063.080078	5590.729980
1061.950195	5354.937988
1060.819336	5298.376465
1059.688477	5246.262207
1058.557617	5185.331543
1057.426758	5106.750488
1056.294922	5132.040527
1055.163086	4960.742676
1054.031250	5039.049805
1052.898438	5024.597656
1051.765625	5043.258301
1050.632813	5055.289551
1049.499023	4963.629395
1048.366211	4852.162598
1047.232422	5011.962891
1046.097656	4964.466309
1044.963867	5047.023926
1043.829102	5028.184082
1042.694336	5011.555176
1041.559570	5052.194824
1040.423828	5202.904785
1039.288086	5280.899414
1038.152344	5191.597168
1037.015625	5295.957520
1035.878906	5338.675293
1034.742188	5592.492188
1033.605469	5586.745605
1032.467773	5605.180176
1031.330078	5476.367676
1030.192383	5512.394531
1029.054688	5243.087402
1027.916016	5360.402832
1026.777344	5365.692871
1025.638672	5276.597656
1024.499023	5169.989258
1023.359375	5190.675781
1022.219727	5209.157715
1021.079102	5210.087891
1019.939453	5103.595215
1018.798828	5124.274414
1017.657227	5041.956055
1016.516602	5042.922363
1015.375000	5078.929199
1014.233398	5005.437500
1013.090820	5074.270508
1011.949219	5051.150391
1010.806641	5028.041016
1009.663086	5007.129395
1008.520508	5012.470215
1007.376953	5151.178223
1006.233398	5257.029785
1005.088867	5598.846191
1003.944336	5647.729980
1002.799805	5810.171387
1001.655273	5721.402344
1000.510742	5449.286133
999.365234	5295.166016
998.219727	5167.306641
997.073242	5087.503906
995.926758	5169.138672
994.780273	5183.136230
993.633789	5199.305664
992.486328	5147.902832
991.339844	5177.145020
990.191406	5191.123047
989.043945	5283.496094
987.895508	5256.070313
986.747070	5291.783691
985.598633	5127.263184
984.449219	5358.803711
983.299805	5327.032227
982.150391	5399.658203
981.000977	5439.636230
979.850586	5460.031250
978.700195	5554.298340
977.548828	5854.906250
976.398438	5942.511719
975.247070	6312.359375
974.095703	6614.725586
972.943359	7025.458984
971.791016	7516.271484
970.638672	8000.332031
969.486328	8820.307617
968.333008	9603.016602
967.179688	10645.457031
966.026367	11754.559570
964.872070	12774.280273
963.717773	13607.210938
962.563477	14612.967773
961.409180	15222.029297
960.253906	15259.371094
959.098633	15441.673828
957.943359	14985.687500
956.787109	14289.851563
955.630859	13626.792969
954.474609	12719.783203
953.317383	11819.708008
952.160156	11222.573242
951.002930	10565.250977
949.845703	9696.613281
948.687500	9236.470703
947.529297	8683.740234
946.371094	8193.865234
945.211914	7749.540039
944.052734	7456.418945
942.893555	7126.785156
941.734375	6799.470703
940.574219	6536.977539
939.414063	6304.781250
938.253906	6219.186035
937.092773	6023.795898
935.931641	5996.446289
934.770508	5715.104492
933.608398	5649.107422
932.446289	5563.778320
931.284180	5484.944336
930.122070	5509.369141
928.958984	5415.537109
927.795898	5319.602539
926.631836	5255.946777
925.468750	5175.136230
924.304688	5309.136230
923.139648	5196.143555
921.975586	5272.109863
920.810547	5217.125488
919.645508	5155.731934
918.479492	5094.367676
917.314453	5226.035156
916.148438	5089.645508
914.981445	5107.646973
913.814453	5014.210938
912.647461	4884.402832
911.480469	5043.794434
910.313477	4896.913086
909.145508	4962.029785
907.976563	4885.865723
906.808594	4938.112793
905.639648	4770.013672
904.470703	4901.385254
903.301758	4829.585938
902.131836	4828.355957
900.961914	4865.588867
899.791992	4892.120605
898.621094	4805.442871
897.450195	4795.675781
896.279297	4777.374023
895.107422	4801.763184
893.935547	4892.279297
892.763672	4965.684570
891.591797	4813.007813
890.418945	4879.998047
889.246094	4819.069336
888.072266	4894.544922
886.899414	4940.156738
885.725586	4872.867676
884.550781	4886.521484
883.376953	4900.167969
882.202148	4864.859375
881.026367	4991.262695
879.851563	5100.584473
878.675781	4956.798828
877.500000	4868.360352
876.323242	4898.987305
875.147461	5003.966309
873.969727	5028.167969
872.792969	4931.303223
871.615234	4913.045410
870.437500	4996.682129
869.259766	4846.845703
868.081055	4877.416016
866.902344	4893.123047
865.723633	4938.506836
864.543945	4867.271973
863.364258	4897.801758
862.184570	4932.552246
861.004883	4897.381836
859.824219	4910.935547
858.643555	5066.330078
857.461914	4976.117676
856.280273	4974.825195
855.098633	5024.304199
853.916992	5082.216309
852.734375	5034.377441
851.551758	5100.709961
850.368164	5038.096191
849.185547	4912.131348
848.001953	4940.421387
846.817383	4966.584473
845.633789	4956.843750
844.449219	4856.354004
843.264648	4857.195313
842.079102	4984.601563
840.893555	5033.911621
839.708008	4914.527832
838.521484	5067.109375
837.334961	5053.138672
836.148438	5098.161621
834.961914	5124.204590
833.774414	4967.048340
832.586914	5005.739746
831.398438	5019.156738
830.210938	4900.019043
829.021484	4810.389648
827.833008	4842.769531
826.643555	4744.791504
825.454102	4878.051270
824.264648	4811.630371
823.074219	4743.143555
821.883789	4754.493164
820.693359	4723.845703
819.501953	4783.467773
818.310547	4792.696777
817.119141	4873.245117
815.926758	4999.890625
814.734375	5141.144531
813.541992	5131.399414
812.348633	5337.505371
811.155273	5315.140625
809.961914	5361.905273
808.768555	5144.807617
807.574219	5097.388184
806.378906	4886.751953
805.184570	4776.655762
803.989258	4687.534180
802.793945	4493.901367
801.597656	4588.873535
800.401367	4478.969727
799.205078	4377.480957
798.008789	4497.472656
796.811523	4458.683105
795.614258	4467.932617
794.416016	4370.726074
793.217773	4427.986816
792.019531	4366.305664
790.821289	4456.904297
789.622070	4355.630859
788.422852	4400.323730
787.222656	4453.327637
786.023438	4420.884277
784.823242	4405.119629
783.622070	4512.214844
782.420898	4369.450195
781.219727	4303.762207
780.018555	4392.070313
778.816406	4432.490234
777.614258	4356.438477
776.412109	4380.213379
775.208984	4449.697266
774.005859	4456.810059
772.801758	4391.215820
771.597656	4406.645020
770.393555	4361.858887
769.189453	4377.285645
767.984375	4230.856445
766.779297	4482.790527
765.574219	4340.557617
764.368164	4523.905762
763.162109	4398.318359
761.955078	4421.993652
760.749023	4453.941406
759.541992	4429.952637
758.333984	4408.046875
757.125977	4344.753418
755.917969	4391.168945
754.709961	4464.452637
753.500977	4341.213867
752.291992	4397.928223
751.083008	4485.617188
749.873047	4393.468750
748.663086	4408.799805
747.452148	4364.224609
746.241211	4381.618652
745.030273	4304.044922
743.819336	4331.762207
742.607422	4305.821289
741.395508	4312.895508
740.182617	4344.708984
738.969727	4395.057617
737.756836	4280.504883
736.543945	4324.660156
735.330078	4397.627441
734.116211	4326.409180
732.901367	4407.568359
731.686523	4305.512695
730.471680	4405.149414
729.256836	4301.091309
728.041016	4357.488281
726.824219	4483.750977
725.608398	4303.709961
724.391602	4423.751953
