#Wave		#Intensity
1819.770508	2255.311768
1818.805664	2296.788818
1817.841797	2239.268066
1816.876953	2256.916504
1815.912109	2235.698242
1814.946289	2268.880127
1813.981445	2325.353027
1813.015625	2301.544678
1812.049805	2355.397461
1811.083008	2365.234131
1810.117188	2359.543457
1809.150391	2348.681885
1808.183594	2317.136230
1807.216797	2288.190186
1806.250000	2316.125732
1805.282227	2227.751221
1804.314453	2240.184814
1803.346680	2304.278320
1802.378906	2319.272705
1801.411133	2303.274658
1800.442383	2284.701904
1799.473633	2307.433838
1798.504883	2379.184570
1797.536133	2376.086914
1796.567383	2362.673340
1795.597656	2269.323486
1794.627930	2361.645752
1793.658203	2247.715576
1792.687500	2360.619141
1791.717773	2303.422607
1790.747070	2315.802002
1789.776367	2343.628662
1788.805664	2394.616943
1787.833984	2324.591064
1786.863281	2380.708740
1785.891602	2328.728516
1784.919922	2366.812744
1783.947266	2397.164063
1782.975586	2355.500244
1782.002930	2460.398438
1781.030273	2452.154053
1780.057617	2425.924316
1779.084961	2409.983154
1778.111328	2368.361572
1777.137695	2393.530273
1776.164063	2382.741699
1775.190430	2441.268066
1774.215820	2486.936768
1773.242188	2455.607422
1772.267578	2498.687744
1771.292969	2400.683594
1770.317383	2484.785889
1769.342773	2438.101563
1768.367188	2435.011475
1767.391602	2552.365479
1766.416016	2459.579834
1765.439453	2479.540527
1764.463867	2443.151855
1763.487305	2411.899414
1762.510742	2472.815186
1761.534180	2551.619629
1760.556641	2433.366699
1759.579102	2522.378418
1758.602539	2401.625244
1757.624023	2534.075928
1756.646484	2515.633789
1755.667969	2612.218994
1754.690430	2442.997070
1753.711914	2498.678223
1752.732422	2549.226563
1751.753906	2515.478271
1750.774414	2540.468750
1749.794922	2473.551758
1748.815430	2621.043213
1747.835938	2559.240967
1746.856445	2573.996338
1745.875977	2667.810547
1744.895508	2557.589111
1743.915039	2572.335449
1742.933594	2566.684570
1741.953125	2601.808594
1740.971680	2575.771973
1739.990234	2585.406982
1739.008789	2635.784424
1738.026367	2719.239502
1737.044922	2616.833008
1736.062500	2593.365723
1735.080078	2717.487549
1734.096680	2765.238525
1733.114258	2751.927979
1732.130859	2814.907959
1731.147461	2768.542725
1730.164063	2724.739014
1729.179688	2772.437012
1728.196289	2817.573975
1727.211914	2738.226563
1726.227539	2801.128174
1725.243164	2803.066650
1724.257813	2843.081055
1723.272461	2796.789063
1722.288086	2803.801758
1721.301758	2851.400879
1720.316406	2959.850342
1719.331055	2987.109619
1718.344727	2978.864258
1717.358398	2859.097168
1716.372070	2969.986328
1715.384766	3012.421143
1714.397461	2857.261230
1713.411133	2907.299561
1712.422852	2914.273193
1711.435547	3019.968750
1710.448242	2958.582031
1709.459961	2947.827881
1708.471680	3005.382324
1707.483398	2974.388672
1706.494141	2920.650146
1705.505859	3003.454834
1704.516602	3078.641602
1703.527344	3080.510498
1702.538086	2950.998779
1701.547852	3137.292236
1700.558594	3177.029297
1699.568359	3226.849121
1698.578125	3190.818359
1697.586914	3238.090088
1696.596680	3252.538330
1695.605469	3140.842285
1694.614258	3258.716309
1693.623047	3227.760498
1692.630859	3358.171387
1691.639648	3286.877686
1690.647461	3354.218262
1689.655273	3398.854248
1688.663086	3491.332031
1687.669922	3407.478027
1686.676758	3482.289063
1685.684570	3529.376709
1684.690430	3485.837646
1683.697266	3598.328613
1682.703125	3572.403809
1681.709961	3591.764160
1680.715820	3560.822021
1679.720703	3658.115723
1678.726563	3652.309082
1677.731445	3674.148682
1676.736328	3721.104492
1675.741211	3652.487061
1674.746094	3676.823975
1673.750000	3708.683350
1672.754883	3743.039307
1671.758789	3714.633545
1670.762695	3781.594971
1669.765625	3773.263428
1668.769531	3662.095703
1667.772461	3668.839355
1666.775391	3770.854248
1665.777344	3699.864746
1664.780273	3576.275879
1663.782227	3678.245117
1662.784180	3599.804932
1661.786133	3599.039063
1660.788086	3655.865723
1659.789063	3569.969727
1658.790039	3599.245850
1657.791016	3563.446289
1656.791992	3537.669678
1655.792969	3564.432129
1654.792969	3541.166992
1653.792969	3392.896729
1652.792969	3522.162842
1651.792969	3526.412598
1650.791992	3508.172119
1649.791016	3577.375000
1648.791016	3651.543945
1647.789063	3655.761963
1646.788086	3557.618652
1645.786133	3731.585693
1644.784180	3693.360107
1643.782227	3657.645752
1642.780273	3704.263184
1641.778320	3743.379150
1640.775391	3902.161133
1639.772461	3918.782227
1638.769531	3838.195068
1637.765625	3857.314453
1636.762695	3786.739502
1635.758789	3748.573975
1634.754883	3817.504150
1633.750977	3714.616211
1632.746094	3698.892578
1631.742188	3653.311768
1630.737305	3580.381104
1629.732422	3569.670654
1628.726563	3372.436279
1627.721680	3428.910156
1626.715820	3321.284668
1625.709961	3395.143555
1624.704102	3369.573730
1623.697266	3269.482178
1622.691406	3201.723389
1621.684570	3208.494141
1620.677734	3242.572754
1619.670898	3284.083740
1618.663086	3275.941406
1617.655273	3225.621338
1616.647461	3244.782715
1615.639648	3224.252686
1614.631836	3305.397705
1613.623047	3227.843018
1612.614258	3269.294678
1611.605469	3238.864014
1610.596680	3349.667236
1609.586914	3291.984863
1608.578125	3313.574951
1607.568359	3275.732422
1606.558594	3329.497559
1605.547852	3427.788818
1604.538086	3625.014893
1603.527344	3520.342529
1602.516602	3527.016113
1601.505859	3504.012451
1600.494141	3570.021729
1599.482422	3319.613770
1598.471680	3397.990234
1597.458984	3320.676514
1596.447266	3319.972168
1595.435547	3339.025635
1594.422852	3163.006348
1593.410156	3261.081543
1592.396484	3139.451904
1591.383789	3230.087158
1590.370117	3308.348633
1589.356445	3337.245605
1588.342773	3215.702393
1587.329102	3227.347900
1586.315430	3344.982666
1585.300781	3262.946045
1584.286133	3299.213135
1583.271484	3160.562256
1582.255859	3226.390137
1581.240234	3119.823975
1580.225586	3234.869141
1579.209961	3118.500732
1578.193359	3302.399658
1577.177734	3254.953857
1576.161133	3212.447754
1575.144531	3226.521729
1574.127930	3225.837402
1573.110352	3161.240234
1572.093750	3153.196777
1571.076172	3221.328125
1570.058594	3228.014893
1569.040039	3251.891357
1568.022461	3258.568359
1567.003906	3218.595947
1565.985352	3267.004150
1564.966797	3268.765381
1563.948242	3341.677002
1562.928711	3242.848633
1561.909180	3193.111572
1560.889648	3361.618408
1559.870117	3154.985352
1558.849609	3338.134033
1557.830078	3256.562988
1556.809570	3375.915527
1555.788086	3255.181396
1554.767578	3330.404297
1553.746094	3339.490723
1552.725586	3167.437012
1551.704102	3249.971924
1550.681641	3256.622559
1549.660156	3180.098389
1548.637695	3394.645996
1547.615234	3281.446533
1546.592773	3319.864990
1545.569336	3289.830322
1544.546875	3374.659180
1543.523438	3261.559570
1542.500000	3238.883789
1541.476563	3357.858154
1540.452148	3227.742432
1539.427734	3231.939209
1538.403320	3316.671387
1537.378906	3225.687012
1536.354492	3322.581299
1535.329102	3292.608154
1534.303711	3282.155029
1533.278320	3398.478760
1532.252930	3373.382813
1531.227539	3292.248779
1530.201172	3442.604980
1529.174805	3354.182617
1528.148438	3329.116455
1527.121094	3335.713623
1526.094727	3378.822510
1525.067383	3302.656982
1524.040039	3299.521973
1523.011719	3386.399902
1521.984375	3346.764404
1520.956055	3312.008789
1519.927734	3384.241211
1518.899414	3410.259277
1517.871094	3297.746338
1516.841797	3372.364502
1515.812500	3269.623535
1514.783203	3322.358154
1513.753906	3285.229980
1512.723633	3388.917725
1511.693359	3402.759277
1510.663086	3370.490234
1509.632813	3391.607666
1508.602539	3403.013916
1507.571289	3351.364502
1506.540039	3418.537354
1505.508789	3480.833252
1504.477539	3494.633301
1503.445313	3433.315918
1502.413086	3524.637451
1501.380859	3477.870850
1500.348633	3351.217529
1499.316406	3464.285645
1498.283203	3495.012939
1497.250000	3366.016357
1496.216797	3537.072510
1495.182617	3579.857910
1494.149414	3591.187012
1493.115234	3515.470459
1492.081055	3543.728760
1491.046875	3697.646484
1490.011719	3508.391113
1488.976563	3647.756104
1487.942383	3569.691650
1486.906250	3602.736572
1485.871094	3616.453613
1484.834961	3656.714844
1483.798828	3581.127197
1482.762695	3645.505127
1481.726563	3678.497314
1480.690430	3699.417236
1479.653320	3717.916992
1478.616211	3835.242432
1477.579102	3778.992432
1476.541016	3845.653564
1475.503906	3801.469971
1474.465820	3911.450928
1473.427734	3987.672363
1472.388672	4059.046143
1471.350586	4053.365479
1470.311523	4011.589844
1469.272461	4075.693848
1468.233398	4235.988281
1467.193359	4316.851074
1466.153320	4320.737305
1465.113281	4298.179199
1464.073242	4302.067383
1463.033203	4474.154785
1461.992188	4425.151367
1460.951172	4349.747559
1459.910156	4492.897949
1458.869141	4455.924805
1457.828125	4406.965332
1456.786133	4386.824707
1455.744141	4601.821289
1454.702148	4459.309570
1453.659180	4494.329102
1452.616211	4582.083496
1451.574219	4595.485840
1450.530273	4532.187500
1449.487305	4603.103027
1448.443359	4542.225098
1447.400391	4577.180176
1446.356445	4504.359863
1445.311523	4414.811035
1444.267578	4540.728027
1443.222656	4377.022461
1442.177734	4498.107422
1441.132813	4430.164551
1440.087891	4338.334473
1439.041992	4213.068359
1437.996094	4193.040527
1436.950195	4266.232422
1435.904297	4210.357910
1434.857422	4199.898438
1433.810547	4213.328125
1432.763672	4207.647949
1431.716797	4142.282715
1430.668945	4117.523438
1429.622070	4109.479980
1428.574219	4189.719727
1427.526367	4060.006104
1426.477539	4128.296387
1425.428711	4194.172852
1424.380859	4293.395020
1423.332031	4235.270996
1422.282227	4146.194336
1421.233398	4209.626465
1420.183594	4011.028076
1419.133789	4083.986572
1418.083984	4168.817383
1417.033203	4134.596191
1415.982422	4176.542969
1414.931641	4106.644531
1413.880859	4131.926758
1412.830078	4092.985107
1411.778320	4275.189941
1410.726563	4331.322754
1409.674805	4339.896484
1408.623047	4258.170410
1407.570313	4437.805664
1406.517578	4320.464844
1405.464844	4457.264648
1404.412109	4373.208008
1403.359375	4445.847656
1402.305664	4300.127441
1401.251953	4306.317383
1400.198242	4288.783203
1399.143555	4159.791016
1398.089844	4244.252441
1397.035156	4297.858887
1395.979492	4064.664307
1394.924805	4241.502930
1393.870117	4193.205566
1392.814453	4204.142090
1391.758789	4295.586426
1390.702148	4088.684570
1389.646484	4111.470703
1388.589844	4122.413574
1387.533203	4083.666504
1386.476563	4101.706543
1385.418945	4150.482910
1384.362305	4194.508789
1383.304688	4281.065918
1382.246094	4112.336914
1381.188477	4250.857422
1380.129883	4235.762207
1379.071289	4159.264648
1378.012695	4307.128906
1376.954102	4282.586914
1375.894531	4203.767090
1374.835938	4134.420410
1373.776367	4211.381348
1372.715820	4113.756836
1371.656250	4103.430664
1370.595703	4142.622559
1369.535156	4042.718018
1368.474609	4067.764404
1367.413086	4048.031006
1366.352539	3974.124023
1365.291016	4083.956055
1364.228516	4000.653564
1363.166992	4053.930420
1362.104492	4064.817627
1361.041992	4049.814453
1359.979492	4063.049561
1358.916992	4109.208496
1357.853516	4202.379883
1356.790039	4133.282715
1355.726563	4036.007324
1354.663086	4145.583496
1353.599609	4050.696777
1352.535156	4164.918945
1351.470703	4079.462891
1350.405273	4078.573730
1349.340820	4117.592773
1348.275391	4112.000977
1347.209961	4158.034180
1346.144531	4192.317383
1345.079102	4060.054443
1344.012695	4235.041992
1342.946289	4262.250977
1341.879883	4266.008301
1340.812500	4173.681641
1339.746094	4186.827637
1338.678711	4324.115723
1337.611328	4269.306152
1336.542969	4324.566406
1335.475586	4251.053223
1334.407227	4222.038574
1333.338867	4214.095215
1332.270508	4185.100586
1331.201172	4336.208984
1330.131836	4417.100586
1329.062500	4310.931641
1327.993164	4359.070313
1326.922852	4297.358398
1325.853516	4238.009766
1324.783203	4274.452637
1323.711914	4212.798340
1322.641602	4267.908203
1321.570313	4215.618652
1320.499023	4242.697754
1319.427734	4262.765137
1318.356445	4292.153809
1317.284180	4242.235352
1316.211914	4208.660156
1315.139648	4207.734863
1314.066406	4153.205078
1312.994141	4224.525879
1311.920898	4291.155762
1310.847656	4269.249512
1309.773438	4275.295898
1308.700195	4297.635254
1307.625977	4222.207031
1306.551758	4307.377930
1305.476563	4397.164063
1304.402344	4296.175781
1303.327148	4362.668945
1302.251953	4264.056641
1301.176758	4344.473145
1300.100586	4283.091309
1299.024414	4340.232910
1297.948242	4269.586426
1296.872070	4421.924316
1295.794922	4365.221680
1294.718750	4343.364258
1293.641602	4335.441895
1292.563477	4320.561035
1291.486328	4386.882324
1290.408203	4420.702148
1289.330078	4489.289551
1288.251953	4455.839355
1287.172852	4505.845215
1286.094727	4358.856934
1285.015625	4441.296387
1283.935547	4426.414551
1282.856445	4467.117188
1281.776367	4621.249023
1280.696289	4448.933105
1279.616211	4572.914551
1278.536133	4544.135742
1277.455078	4552.379883
1276.374023	4669.315918
1275.292969	4559.606934
1274.210938	4558.593750
1273.129883	4733.228027
1272.047852	4683.652832
1270.965820	4652.579590
1269.882813	4674.641113
1268.799805	4502.728027
1267.717773	4702.572266
1266.633789	4683.061035
1265.550781	4732.784180
1264.466797	4729.422852
1263.382813	4744.514648
1262.298828	4641.992676
1261.214844	4714.733398
1260.129883	4762.086426
1259.044922	4754.110840
1257.959961	4695.451172
1256.875000	4662.154785
1255.789063	4831.529785
1254.703125	4841.962402
1253.617188	4833.975098
1252.531250	4828.291504
1251.444336	4900.839844
1250.357422	4856.037109
1249.270508	4919.345703
1248.183594	5007.918457
1247.095703	5034.382813
1246.007813	4895.357910
1244.919922	4898.856934
1243.832031	4929.920898
1242.743164	4809.384766
1241.654297	4766.974121
1240.565430	4747.539063
1239.476563	4813.034668
1238.386719	4807.365234
1237.296875	4758.108398
1236.207031	4624.007324
1235.117188	4882.093262
1234.026367	4665.489746
1232.935547	4634.643066
1231.844727	4633.601074
1230.753906	4696.708496
1229.662109	4613.191406
1228.570313	4639.633301
1227.478516	4643.167480
1226.386719	4500.202637
1225.293945	4531.227539
1224.201172	4589.693848
1223.108398	4439.973633
1222.015625	4514.441406
1220.921875	4492.844727
1219.828125	4494.116211
1218.734375	4458.820801
1217.640625	4400.691406
1216.545898	4536.759277
1215.451172	4426.108887
1214.356445	4603.208008
1213.261719	4462.915039
1212.166016	4487.010254
1211.070313	4449.486328
1209.974609	4421.103516
1208.877930	4504.489746
1207.782227	4485.227539
1206.685547	4388.462402
1205.587891	4542.453125
1204.491211	4511.800293
1203.393555	4490.272949
1202.295898	4527.973633
1201.198242	4474.571289
1200.100586	4443.958984
1199.001953	4420.188477
1197.903320	4323.609375
1196.804688	4502.356445
1195.705078	4403.526367
1194.605469	4384.332520
1193.505859	4401.522461
1192.406250	4425.522949
1191.306641	4479.054688
1190.206055	4357.620117
1189.105469	4420.227051
1188.004883	4437.386719
1186.903320	4454.537598
1185.801758	4433.091797
1184.700195	4404.847656
1183.598633	4478.713867
1182.496094	4420.982422
1181.393555	4574.183594
1180.291016	4475.644043
1179.188477	4558.491211
1178.084961	4446.401367
1176.981445	4536.013672
1175.877930	4521.383789
1174.774414	4513.554199
1173.669922	4512.520020
1172.565430	4633.723633
1171.460938	4553.450684
1170.356445	4547.881348
1169.250977	4614.700684
1168.145508	4559.363281
1167.040039	4617.104492
1165.933594	4645.430664
1164.828125	4603.682617
1163.721680	4613.921875
1162.614258	4574.458008
1161.507813	4645.676758
1160.400391	4603.964355
1159.292969	4652.567871
1158.185547	4624.413086
1157.077148	4573.707031
1155.969727	4660.631836
1154.860352	4582.875000
1153.751953	4606.621094
1152.642578	4659.661621
1151.534180	4599.987305
1150.424805	4490.767578
1149.314453	4579.840332
1148.204102	4626.078613
1147.094727	4647.525879
1145.983398	4619.436523
1144.873047	4613.866699
1143.761719	4540.793945
1142.650391	4625.228027
1141.539063	4554.434082
1140.427734	4492.666992
1139.315430	4662.478027
1138.203125	4656.901367
1137.089844	4597.398438
1135.977539	4639.014648
1134.864258	5269.056641
1133.750977	5198.223633
1132.637695	5421.508301
1131.523438	5269.872559
1130.409180	4777.235840
1129.294922	4711.066406
1128.180664	4709.970215
1127.065430	4612.453613
1125.950195	4705.534668
1124.834961	4805.295410
1123.718750	4730.229980
1122.603516	4635.037109
1121.487305	4631.715820
1120.370117	4673.179199
1119.253906	4855.658691
1118.136719	4628.472168
1117.019531	4690.043457
1115.902344	4691.184082
1114.784180	4672.194336
1113.666016	4773.959473
1112.547852	4672.243164
1111.428711	4747.139160
1110.310547	4810.826660
1109.191406	4921.396973
1108.072266	4909.075684
1106.952148	4916.855957
1105.832031	4848.730469
1104.711914	4948.025879
1103.591797	5029.423340
1102.471680	5039.395508
1101.350586	4955.690430
1100.229492	5005.809570
1099.107422	5075.967773
1097.986328	5032.427734
1096.864258	5053.524414
1095.741211	5112.480957
1094.619141	5142.456543
1093.496094	5216.948730
1092.373047	5282.500977
1091.250000	5261.224609
1090.125977	5195.457031
1089.002930	5189.781250
1087.878906	5395.385742
1086.753906	5505.283203
1085.629883	5521.765137
1084.504883	5524.903809
1083.378906	5621.359375
1082.253906	5646.685059
1081.127930	5885.197266
1080.001953	5779.448730
1078.875977	6091.067383
1077.749023	6138.446289
1076.623047	6094.834473
1075.496094	6242.006836
1074.368164	6322.578613
1073.241211	6398.676758
1072.113281	6337.307617
1070.984375	6302.559570
1069.856445	6349.802734
1068.727539	6332.786621
1067.598633	6151.903809
1066.469727	6161.508789
1065.339844	6091.423828
1064.210938	5981.538574
1063.080078	5854.005371
1061.950195	5815.006836
1060.819336	5822.464355
1059.688477	5701.689941
1058.557617	5656.122559
1057.426758	5511.136230
1056.294922	5545.166504
1055.163086	5428.987305
1054.031250	5480.684570
1052.898438	5479.372559
1051.765625	5372.118652
1050.632813	5357.591797
1049.499023	5411.458984
1048.366211	5557.931641
1047.232422	5477.217773
1046.097656	5471.494141
1044.963867	5496.627441
1043.829102	5389.543457
1042.694336	5612.941895
1041.559570	5525.700195
1040.423828	5645.471191
1039.288086	5694.742188
1038.152344	5704.374512
1037.015625	5758.006348
1035.878906	5919.396484
1034.742188	6025.728516
1033.605469	5980.302246
1032.467773	5904.123535
1031.330078	5737.879395
1030.192383	5811.192871
1029.054688	5779.037598
1027.916016	5698.584961
1026.777344	5677.447266
1025.638672	5636.564941
1024.499023	5582.535156
1023.359375	5625.060059
1022.219727	5579.830566
1021.079102	5620.141113
1019.939453	5590.278320
1018.798828	5556.045898
1017.657227	5613.859863
1016.516602	5518.297363
1015.375000	5591.421387
1014.233398	5537.511719
1013.090820	5358.850098
1011.949219	5506.366699
1010.806641	5553.162598
1009.663086	5433.686523
1008.520508	5535.148926
1007.376953	5708.712402
1006.233398	5700.762695
1005.088867	6033.729004
1003.944336	6381.825684
1002.799805	6493.849609
1001.655273	6234.581543
1000.510742	6014.736816
999.365234	5631.297852
998.219727	5734.663086
997.073242	5676.537598
995.926758	5603.171875
994.780273	5560.369141
993.633789	5615.686035
992.486328	5524.950684
991.339844	5480.016602
990.191406	5591.948242
989.043945	5481.681641
987.895508	5658.875977
986.747070	5592.181152
985.598633	5590.805664
984.449219	5632.944824
983.299805	5601.105469
982.150391	5928.098633
981.000977	5813.583984
979.850586	6009.946777
978.700195	6199.692383
977.548828	6265.510254
976.398438	6435.549316
975.247070	6737.960938
974.095703	7012.000000
972.943359	7439.998047
971.791016	8054.388184
970.638672	8813.815430
969.486328	9312.614258
968.333008	10266.490234
967.179688	11161.364258
966.026367	12144.644531
964.872070	13253.099609
963.717773	14198.545898
962.563477	15043.907227
961.409180	15380.073242
960.253906	15809.141602
959.098633	16056.224609
957.943359	15288.560547
956.787109	14761.349609
955.630859	13849.509766
954.474609	13195.370117
953.317383	12282.208008
952.160156	11605.013672
951.002930	10835.268555
949.845703	10206.279297
948.687500	9769.759766
947.529297	9005.360352
946.371094	8606.040039
945.211914	8353.624023
944.052734	8012.900391
942.893555	7650.781738
941.734375	7286.687012
940.574219	7080.109375
939.414063	6977.061523
938.253906	6772.816406
937.092773	6529.906738
935.931641	6444.295898
934.770508	6109.026855
933.608398	6223.702148
932.446289	6127.471191
931.284180	5999.023438
930.122070	5827.630859
928.958984	5899.259277
927.795898	5755.916992
926.631836	5677.109863
925.468750	5746.570801
924.304688	5642.030762
923.139648	5638.459473
921.975586	5555.463867
920.810547	5629.173340
919.645508	5659.933594
918.479492	5647.777344
917.314453	5631.336914
916.148438	5542.010742
914.981445	5454.872559
913.814453	5485.632813
912.647461	5454.250000
911.480469	5493.559570
910.313477	5310.163574
909.145508	5394.441406
907.976563	5324.587402
906.808594	5359.606934
905.639648	5296.212402
904.470703	5190.079590
903.301758	5284.965332
902.131836	5300.718750
900.961914	5265.178223
899.791992	5289.471680
898.621094	5360.738281
897.450195	5348.694336
896.279297	5266.211426
895.107422	5247.793457
893.935547	5259.253906
892.763672	5255.775879
891.591797	5320.538086
890.418945	5325.572266
889.246094	5281.580566
888.072266	5369.722656
886.899414	5389.649414
885.725586	5471.327148
884.550781	5357.075684
883.376953	5400.401855
882.202148	5250.047363
881.026367	5272.101074
879.851563	5483.447266
878.675781	5426.748535
877.500000	5410.470215
876.323242	5485.590332
875.147461	5490.551758
873.969727	5457.271973
872.792969	5387.905273
871.615234	5367.406250
870.437500	5446.680664
869.259766	5347.658203
868.081055	5373.855957
866.902344	5302.473633
865.723633	5400.762695
864.543945	5320.929199
863.364258	5355.580078
862.184570	5402.924805
861.004883	5384.578125
859.824219	5393.770020
858.643555	5345.793457
857.461914	5433.302246
856.280273	5560.969727
855.098633	5441.056641
853.916992	5562.309082
852.734375	5527.031738
851.551758	5348.029785
850.368164	5352.977051
849.185547	5520.602051
848.001953	5495.928711
846.817383	5363.573242
845.633789	5404.395508
844.449219	5417.757813
843.264648	5376.252930
842.079102	5332.659180
840.893555	5348.135742
839.708008	5367.819824
838.521484	5537.145020
837.334961	5495.657227
836.148438	5504.750488
834.961914	5505.413574
833.774414	5362.895996
832.586914	5473.054688
831.398438	5395.856445
830.210938	5493.322754
829.021484	5302.576172
827.833008	5418.938965
826.643555	5213.594238
825.454102	5302.595215
824.264648	5282.288086
823.074219	5249.386719
821.883789	5241.702637
820.693359	5393.582031
819.501953	5238.936523
818.310547	5302.602539
817.119141	5510.983887
815.926758	5522.110352
814.734375	5734.514648
813.541992	5737.189453
812.348633	5750.339355
811.155273	5792.812012
809.961914	5764.048340
808.768555	5647.353027
807.574219	5570.492676
806.378906	5401.587402
805.184570	5209.755859
803.989258	5195.821289
802.793945	5068.970215
801.597656	4998.631836
800.401367	4907.429199
799.205078	4866.421875
798.008789	4940.326660
796.811523	4865.916504
795.614258	4885.496582
794.416016	4854.971191
793.217773	4976.790039
792.019531	4775.190430
790.821289	4775.999512
789.622070	4841.443359
788.422852	4721.332520
787.222656	4782.585938
786.023438	4968.807129
784.823242	4940.398926
783.622070	4943.238770
782.420898	4877.380371
781.219727	4898.963379
780.018555	4968.386719
778.816406	4858.891113
777.614258	4826.393066
776.412109	4798.069336
775.208984	4800.934570
774.005859	5007.418457
772.801758	4947.907227
771.597656	4803.284668
770.393555	4866.348145
769.189453	4933.526855
767.984375	4797.322266
766.779297	4818.844238
765.574219	4778.138672
764.368164	4880.510742
763.162109	4881.262695
761.955078	4861.291992
760.749023	4820.614746
759.541992	4850.373535
758.333984	4824.212891
757.125977	4872.581543
755.917969	4794.692871
754.709961	4940.274902
753.500977	4781.747070
752.291992	4854.882813
751.083008	4930.044922
749.873047	4846.041016
748.663086	4850.919434
747.452148	4777.308105
746.241211	4809.043457
745.030273	4683.874023
743.819336	4703.232910
742.607422	4852.559570
741.395508	4750.166504
740.182617	4837.535645
738.969727	4865.072754
737.756836	4690.625488
736.543945	4747.030762
735.330078	4786.925781
734.116211	4703.245117
732.901367	4743.128418
731.686523	4750.059082
730.471680	4791.962891
729.256836	4757.735352
728.041016	4873.642090
726.824219	4792.124512
725.608398	4745.590332
724.391602	5434.660645
