#Wave		#Intensity
1819.605469	2625.922852
1818.640625	2765.902832
1817.675781	2804.172607
1816.710938	2720.644531
1815.746094	2813.308594
1814.781250	2690.965576
1813.815430	2806.900146
1812.849609	2850.297119
1811.883789	2751.320557
1810.917969	2761.070557
1809.951172	2804.448975
1808.985352	2721.066895
1808.018555	2834.257324
1807.051758	2815.541016
1806.083984	2755.474854
1805.117188	2762.626953
1804.149414	2754.273682
1803.181641	2727.841553
1802.212891	2732.412598
1801.245117	2992.605225
1800.276367	2811.248779
1799.307617	2882.903076
1798.338867	2949.365234
1797.370117	2912.606201
1796.400391	2826.857178
1795.431641	2849.450684
1794.461914	2817.893555
1793.492188	2840.479004
1792.521484	2785.744629
1791.551758	2772.257080
1790.581055	2815.444824
1789.610352	2871.490479
1788.638672	2894.040039
1787.667969	2888.263184
1786.696289	2900.504639
1785.724609	2887.009766
1784.752930	2994.429932
1783.781250	2924.337158
1782.808594	2908.274414
1781.836914	2838.230713
1780.864258	2914.724609
1779.890625	2870.407471
1778.917969	2900.615723
1777.944336	2869.163818
1776.970703	2960.993408
1775.997070	2973.189941
1775.023438	2959.711426
1774.049805	2977.035889
1773.075195	2976.391602
1772.100586	3039.880371
1771.125977	2998.187012
1770.150391	2943.690674
1769.175781	2973.817871
1768.200195	2998.805908
1767.224609	3003.282959
1766.249023	2969.328369
1765.272461	3083.950928
1764.296875	2991.093506
1763.320313	3028.852539
1762.343750	3058.915771
1761.366211	2999.393799
1760.389648	3055.036865
1759.412109	3082.517090
1758.434570	3074.179443
1757.457031	3063.288330
1756.479492	3103.531006
1755.500977	3174.427246
1754.522461	2959.093750
1753.543945	2973.784668
1752.565430	3095.747803
1751.585938	3125.725342
1750.607422	3076.542480
1749.627930	2983.986328
1748.648438	3121.154541
1747.667969	3066.901123
1746.688477	3206.543213
1745.708008	3149.744629
1744.727539	3121.018555
1743.747070	3127.995117
1742.765625	3165.553711
1741.785156	3177.614014
1740.803711	3156.549561
1739.822266	3196.625000
1738.840820	3208.670654
1737.858398	3182.520996
1736.875977	3202.201172
1735.894531	3153.159668
1734.911133	3294.967529
1733.928711	3296.803955
1732.945313	3209.624512
1731.962891	3269.961182
1730.979492	3335.356445
1729.995117	3347.348877
1729.011719	3316.137451
1728.027344	3300.182617
1727.042969	3362.975098
1726.058594	3456.214355
1725.074219	3531.640869
1724.089844	3442.040527
1723.104492	3504.748535
1722.119141	3575.041504
1721.133789	3490.562744
1720.147461	3639.450928
1719.162109	3603.172119
1718.175781	3569.443848
1717.189453	3550.937256
1716.203125	3443.747803
1715.215820	3562.084473
1714.229492	3563.854736
1713.242188	3606.142822
1712.254883	3650.944580
1711.266602	3624.850342
1710.279297	3621.543945
1709.291016	3656.192627
1708.302734	3609.876221
1707.314453	3591.400146
1706.325195	3600.746582
1705.336914	3688.459473
1704.347656	3730.638916
1703.358398	3699.517822
1702.368164	3774.520752
1701.378906	3773.714111
1700.388672	3775.433350
1699.398438	3855.421387
1698.408203	3945.472656
1697.417969	3826.013428
1696.426758	3941.264404
1695.435547	4132.146484
1694.444336	4032.900879
1693.453125	4112.730957
1692.461914	4003.447510
1691.469727	4080.729492
1690.477539	4147.898438
1689.485352	4199.921875
1688.493164	4108.345215
1687.500000	4122.579102
1686.507813	4348.304688
1685.514648	4231.581543
1684.520508	4361.551270
1683.527344	4368.169922
1682.533203	4314.409180
1681.540039	4263.186523
1680.545898	4337.716309
1679.550781	4364.446777
1678.556641	4378.597656
1677.561523	4410.333984
1676.566406	4369.194824
1675.571289	4380.823730
1674.576172	4470.300781
1673.580078	4464.327148
1672.583984	4440.783203
1671.587891	4434.817871
1670.591797	4421.327148
1669.595703	4553.348633
1668.598633	4499.707520
1667.601563	4451.104004
1666.604492	4394.999512
1665.607422	4466.755371
1664.609375	4505.901855
1663.611328	4422.260742
1662.614258	4564.104492
1661.615234	4290.146973
1660.617188	4434.461914
1659.618164	4506.117188
1658.620117	4357.489746
1657.620117	4446.646973
1656.621094	4465.715820
1655.622070	4339.702637
1654.622070	4428.806152
1653.622070	4287.853027
1652.622070	4289.441406
1651.622070	4296.026855
1650.621094	4275.124512
1649.620117	4296.698730
1648.619141	4298.282715
1647.618164	4409.735352
1646.617188	4376.343750
1645.615234	4427.829102
1644.613281	4446.851563
1643.611328	4640.508789
1642.609375	4726.825684
1641.606445	4780.685547
1640.603516	4854.469238
1639.600586	4880.858887
1638.597656	4802.562500
1637.594727	4686.923340
1636.590820	4633.612793
1635.586914	4635.119629
1634.583008	4412.513672
1633.579102	4491.243652
1632.575195	4442.997559
1631.570313	4287.764648
1630.565430	4351.542480
1629.560547	4223.756836
1628.554688	4073.642578
1627.549805	4065.318359
1626.543945	4146.490234
1625.538086	4175.434570
1624.532227	4035.396729
1623.525391	3955.041992
1622.519531	4061.005859
1621.512695	4080.010010
1620.505859	3955.007080
1619.498047	3889.630371
1618.491211	3873.914795
1617.483398	3989.707275
1616.475586	3926.844971
1615.467773	3844.168213
1614.458984	4029.321045
1613.451172	3936.741211
1612.442383	4017.697510
1611.433594	3873.120850
1610.423828	4018.470459
1609.415039	4025.048828
1608.405273	4006.859863
1607.395508	3914.401611
1606.385742	4104.175293
1605.375977	4137.952637
1604.365234	4278.111328
1603.354492	4331.627441
1602.343750	4293.609863
1601.333008	4302.589844
1600.321289	4269.538574
1599.309570	4192.010254
1598.298828	4089.802490
1597.286133	4185.290527
1596.274414	4048.545898
1595.261719	4097.079590
1594.250000	4054.236084
1593.237305	3868.234131
1592.223633	3980.943359
1591.210938	3962.826660
1590.197266	3981.722168
1589.183594	3894.551270
1588.169922	3965.237793
1587.156250	3964.396729
1586.141602	3892.073975
1585.126953	3955.322266
1584.112305	4003.760498
1583.097656	3951.181396
1582.083008	3960.194824
1581.067383	3922.420654
1580.051758	3860.044678
1579.036133	3910.912109
1578.019531	3865.789551
1577.003906	3919.094238
1575.987305	3935.480713
1574.970703	4040.389648
1573.954102	4012.487793
1572.936523	3932.977051
1571.919922	3890.364014
1570.902344	3965.708008
1569.884766	3928.018555
1568.866211	3956.657715
1567.848633	3889.519775
1566.830078	4060.543701
1565.811523	3878.052002
1564.792969	3909.130615
1563.773438	3957.369873
1562.754883	3934.454346
1561.735352	4053.786377
1560.715820	4065.185547
1559.695313	3980.977539
1558.675781	4026.698486
1557.655273	4011.142334
1556.634766	3975.994385
1555.614258	3984.947754
1554.592773	3947.371094
1553.572266	4093.427002
1552.550781	4004.440918
1551.529297	4084.348145
1550.507813	4002.741455
1549.485352	4023.907471
1548.462891	4035.281494
1547.440430	4036.870117
1546.417969	4045.791748
1545.395508	3937.394043
1544.372070	4036.743652
1543.348633	4045.658936
1542.325195	4078.995117
1541.301758	4061.035400
1540.277344	4111.443848
1539.252930	4078.838623
1538.228516	4019.402100
1537.204102	3999.029297
1536.179688	4012.816406
1535.154297	4021.719727
1534.128906	4040.372559
1533.103516	4137.028320
1532.078125	4063.029785
1531.051758	4052.419434
1530.025391	4139.265137
1528.999023	4072.620117
1527.972656	3976.779541
1526.946289	4034.368652
1525.918945	4126.011719
1524.891602	3998.582275
1523.864258	4090.193848
1522.836914	4206.092773
1521.808594	4054.405273
1520.780273	4094.881348
1519.751953	4142.633301
1518.723633	4243.838379
1517.695313	4116.571289
1516.666016	4135.132813
1515.636719	3922.925781
1514.607422	4135.803223
1513.578125	4113.071289
1512.547852	4138.898926
1511.517578	4077.343994
1510.487305	4100.741699
1509.457031	4216.314941
1508.425781	4246.948730
1507.395508	4173.297363
1506.364258	4206.351074
1505.333008	4123.043945
1504.300781	4156.093750
1503.269531	4193.975098
1502.237305	4137.368164
1501.205078	4250.313477
1500.171875	4111.393555
1499.139648	4292.078125
1498.106445	4201.613770
1497.073242	4227.336426
1496.040039	4231.274902
1495.006836	4232.792480
1493.972656	4289.928223
1492.938477	4363.962891
1491.904297	4440.383301
1490.870117	4364.520508
1489.834961	4315.267090
1488.800781	4331.256836
1487.765625	4390.711914
1486.729492	4394.605469
1485.694336	4345.386230
1484.658203	4334.805664
1483.622070	4384.555664
1482.585938	4424.634277
1481.549805	4508.112305
1480.512695	4548.146484
1479.476563	4749.701660
1478.439453	4514.869629
1477.401367	4668.145508
1476.364258	4614.141113
1475.326172	4658.926270
1474.288086	4732.593750
1473.250000	4709.912109
1472.211914	4879.833008
1471.172852	4869.163574
1470.133789	4971.598633
1469.094727	5040.307129
1468.055664	5121.012695
1467.015625	5069.416992
1465.976563	5114.016113
1464.936523	5264.363770
1463.895508	5210.366211
1462.855469	5307.767090
1461.814453	5265.793457
1460.773438	5269.471191
1459.732422	5340.382324
1458.691406	5456.875977
1457.649414	5431.707031
1456.608398	5444.943359
1455.566406	5462.971680
1454.523438	5593.730469
1453.481445	5556.561035
1452.438477	5531.395020
1451.395508	5597.331055
1450.352539	5617.702637
1449.309570	5513.466797
1448.265625	5411.670410
1447.221680	5444.042969
1446.177734	5562.605469
1445.133789	5350.735840
1444.088867	5316.079590
1443.044922	5312.547363
1442.000000	5249.203125
1440.954102	5334.190430
1439.909180	5340.221191
1438.863281	5267.346191
1437.817383	5077.369141
1436.771484	5073.890137
1435.725586	5048.907227
1434.678711	5119.491699
1433.631836	5051.517578
1432.584961	5024.166016
1431.538086	5116.196289
1430.490234	5036.330566
1429.443359	5185.590332
1428.395508	5177.319336
1427.346680	5226.299316
1426.298828	5182.249512
1425.250000	5255.049805
1424.201172	5182.406250
1423.152344	5069.277344
1422.103516	5006.234863
1421.053711	5048.039551
1420.003906	5061.244141
1418.954102	5126.830566
1417.904297	5047.163086
1416.854492	5036.556152
1415.803711	5087.826172
1414.752930	5186.657227
1413.702148	5042.819336
1412.650391	5151.129883
1411.598633	5171.419434
1410.547852	5203.585449
1409.495117	5273.763672
1408.443359	5120.555176
1407.390625	5157.461426
1406.338867	5305.980957
1405.285156	5314.335449
1404.232422	5488.871582
1403.179688	5257.451660
1402.125977	5234.959961
1401.072266	5302.634277
1400.018555	5223.212891
1398.963867	5267.144531
1397.909180	5178.279785
1396.854492	5238.794922
1395.799805	5176.043945
1394.745117	5153.600586
1393.689453	5159.593750
1392.633789	5113.478516
1391.578125	5069.750488
1390.522461	5196.495117
1389.465820	5098.328125
1388.409180	5220.278320
1387.352539	4980.194336
1386.295898	5106.847168
1385.239258	5134.120605
1384.181641	5187.389648
1383.124023	5257.181641
1382.066406	5260.770020
1381.007813	5302.161133
1379.950195	5192.346680
1378.891602	5252.628418
1377.832031	5116.896973
1376.773438	5113.427246
1375.713867	5145.362305
1374.655273	5019.179688
1373.594727	5100.664551
1372.535156	5146.732422
1371.475586	4874.421387
1370.415039	4972.386719
1369.354492	4846.376465
1368.292969	4944.304199
1367.232422	5035.121094
1366.170898	5107.052246
1365.109375	4955.213867
1364.047852	4937.654297
1362.986328	4990.725586
1361.923828	4895.496582
1360.861328	4969.730957
1359.798828	4902.777832
1358.735352	5021.666504
1357.672852	4888.886230
1356.609375	5035.937988
1355.545898	5023.088867
1354.481445	4982.044922
1353.417969	4943.367188
1352.353516	4965.780273
1351.289063	4967.046875
1350.224609	4944.832031
1349.159180	5108.076660
1348.093750	5034.207031
1347.028320	5138.698730
1345.962891	5118.810059
1344.896484	5131.765625
1343.831055	5257.270020
1342.764648	5225.645020
1341.698242	5182.313965
1340.630859	5244.452637
1339.563477	5233.935547
1338.497070	5113.332031
1337.428711	5177.785645
1336.361328	5043.198242
1335.292969	5140.409180
1334.224609	5207.153320
1333.156250	5294.925293
1332.087891	5200.195801
1331.018555	5301.962402
1329.950195	5361.595703
1328.879883	5360.421387
1327.810547	5181.618164
1326.741211	5262.267578
1325.670898	5279.803223
1324.600586	5259.960449
1323.529297	5291.499023
1322.458984	5264.656738
1321.387695	5181.806641
1320.316406	5327.687988
1319.245117	5289.188477
1318.172852	5213.383301
1317.101563	5261.212402
1316.029297	5362.645996
1314.957031	5268.224121
1313.883789	5274.057617
1312.810547	5300.858887
1311.737305	5322.987793
1310.664063	5284.552734
1309.590820	5255.447266
1308.516602	5296.194336
1307.442383	5269.425781
1306.368164	5331.093262
1305.293945	5409.018555
1304.218750	5398.522949
1303.143555	5457.793945
1302.068359	5428.691406
1300.993164	5313.598145
1299.916992	5437.916016
1298.840820	5518.034668
1297.764648	5347.247070
1296.688477	5378.579102
1295.611328	5463.299316
1294.535156	5378.524414
1293.458008	5298.428223
1292.379883	5531.607422
1291.302734	5384.237793
1290.224609	5540.757813
1289.146484	5486.200195
1288.068359	5473.394531
1286.989258	5632.106934
1285.910156	5512.681641
1284.831055	5645.829590
1283.751953	5704.799805
1282.672852	5733.639648
1281.592773	5718.477539
1280.512695	5543.609863
1279.432617	5660.401367
1278.351563	5531.895508
1277.270508	5761.979980
1276.189453	5719.073730
1275.108398	5789.478516
1274.027344	5845.981445
1272.945313	5784.594727
1271.863281	5871.109863
1270.781250	5823.603516
1269.698242	5916.999023
1268.616211	5814.085938
1267.533203	6022.865234
1266.449219	5894.585449
1265.366211	5999.416016
1264.282227	5739.700684
1263.198242	5828.373047
1262.114258	5746.366699
1261.030273	5742.779785
1259.945313	5741.499023
1258.860352	5735.609375
1257.775391	5702.075195
1256.690430	5963.384277
1255.604492	5754.797363
1254.518555	5831.790527
1253.432617	5957.087402
1252.345703	6084.628418
1251.259766	5894.603516
1250.172852	5918.588379
1249.085938	6009.253906
1247.998047	6069.988770
1246.911133	6018.057617
1245.823242	5961.553223
1244.735352	5868.309570
1243.646484	5979.556641
1242.557617	6014.962891
1241.469727	5997.541016
1240.379883	6055.881836
1239.291016	5912.225586
1238.201172	6004.977539
1237.111328	5898.101074
1236.021484	5768.336426
1234.931641	5984.880859
1233.840820	5818.472656
1232.750000	5860.712891
1231.659180	5815.855957
1230.568359	5768.728027
1229.476563	5781.172363
1228.384766	5827.960449
1227.292969	5712.175293
1226.200195	5807.023926
1225.108398	5631.795410
1224.015625	5767.799805
1222.922852	5723.039063
1221.829102	5664.576172
1220.736328	5610.711914
1219.642578	5520.297852
1218.547852	5669.882324
1217.454102	5636.614258
1216.359375	5468.587402
1215.264648	5711.715332
1214.169922	5562.012207
1213.075195	5665.759766
1211.979492	5607.422363
1210.883789	5555.955566
1209.788086	5741.755371
1208.691406	5813.436035
1207.595703	5730.033203
1206.499023	5765.208496
1205.401367	5784.413574
1204.304688	5639.549316
1203.207031	5800.014160
1202.109375	5650.655273
1201.011719	5697.190430
1199.913086	5741.427246
1198.815430	5769.710938
1197.716797	5650.073242
1196.617188	5680.638184
1195.518555	5761.227051
1194.418945	5609.835449
1193.319336	5742.690918
1192.219727	5641.375000
1191.119141	5708.261719
1190.018555	5584.279785
1188.917969	5751.087402
1187.817383	5729.338379
1186.715820	5657.651367
1185.614258	5751.692383
1184.512695	5752.648438
1183.411133	5755.872559
1182.308594	5691.046387
1181.206055	5753.242188
1180.103516	5785.935059
1179.000977	5755.145020
1177.897461	5871.669434
1176.793945	5772.902344
1175.690430	5728.542969
1174.586914	5758.935547
1173.482422	5766.672363
1172.377930	5645.380859
1171.273438	5963.178711
1170.167969	5749.131348
1169.063477	5817.935059
1167.958008	5773.630859
1166.851563	5912.486328
1165.746094	5895.304688
1164.639648	5774.172363
1163.533203	5790.920410
1162.426758	5934.159180
1161.319336	5876.333984
1160.211914	5908.849609
1159.104492	5993.268555
1157.997070	6122.784180
1156.888672	5961.175293
1155.781250	5876.336914
1154.671875	5843.408203
1153.563477	6004.402344
1152.454102	5813.661133
1151.344727	5852.885742
1150.235352	5792.951172
1149.125977	5757.822754
1148.015625	5855.586426
1146.905273	5779.928711
1145.794922	5814.609375
1144.684570	5831.268555
1143.573242	5922.171387
1142.461914	5945.544922
1141.350586	5753.000977
1140.238281	5870.837891
1139.125977	5829.013184
1138.013672	5800.691895
1136.901367	5785.864258
1135.788086	5797.999512
1134.674805	5839.325195
1133.561523	5988.408691
1132.448242	5930.895996
1131.333984	6032.755859
1130.219727	5999.939453
1129.105469	5904.325684
1127.991211	5967.991211
1126.875977	6132.527344
1125.760742	6054.880371
1124.645508	5997.439453
1123.529297	6049.817383
1122.413086	6005.843262
1121.296875	6053.713867
1120.180664	6135.147949
1119.063477	6118.044922
1117.947266	6080.806641
1116.829102	6159.937012
1115.711914	6317.324707
1114.593750	6161.529297
1113.476563	6171.267578
1112.357422	6232.415039
1111.239258	6186.257324
1110.120117	6153.526367
1109.000977	6268.245605
1107.881836	6222.108887
1106.761719	6303.263672
1105.642578	6192.401855
1104.522461	6356.099609
1103.401367	6314.444336
1102.281250	6364.267578
1101.160156	6360.541504
1100.039063	6517.353027
1098.916992	6533.652832
1097.794922	6469.713867
1096.672852	6610.789063
1095.550781	6696.107910
1094.428711	6645.534668
1093.305664	6659.553711
1092.182617	6629.045410
1091.059570	6738.755371
1089.935547	6697.115234
1088.811523	6851.244141
1087.687500	7000.851074
1086.563477	6899.144531
1085.438477	7099.792969
1084.313477	7044.777832
1083.188477	7071.994141
1082.062500	7239.137207
1080.937500	7452.834961
1079.811523	7557.640137
1078.684570	7546.969727
1077.558594	7662.796387
1076.431641	7680.946289
1075.304688	7865.444824
1074.176758	8074.248535
1073.049805	7870.577637
1071.921875	8167.939941
1070.792969	8154.917969
1069.665039	7867.181152
1068.536133	7920.682617
1067.407227	7921.011719
1066.278320	7753.082520
1065.148438	7589.659180
1064.018555	7552.444336
1062.888672	7570.554199
1061.758789	7336.510254
1060.627930	7277.266113
1059.497070	7158.359375
1058.366211	7138.967773
1057.234375	7192.503906
1056.102539	6983.124023
1054.970703	6977.036133
1053.838867	6895.875488
1052.706055	7141.471680
1051.573242	6985.268555
1050.440430	6915.193359
1049.307617	6935.595215
1048.173828	6944.958984
1047.040039	7055.743652
1045.905273	6946.034668
1044.771484	7045.744141
1043.636719	7092.524902
1042.501953	6969.666016
1041.366211	7045.069336
1040.231445	7091.812988
1039.095703	7021.868652
1037.958984	7249.048828
1036.823242	7236.301758
1035.686523	7146.572754
1034.549805	7232.813477
1033.413086	7257.451172
1032.275391	7440.334473
1031.137695	7357.230469
1030.000000	7274.165527
1028.861328	7237.264648
1027.722656	7112.543945
1026.583984	7391.832031
1025.445313	7302.249512
1024.305664	7364.116699
1023.166016	7140.761230
1022.026367	7367.128906
1020.886719	7292.982910
1019.746094	7032.536133
1018.605469	7195.204102
1017.463867	7136.488281
1016.323242	7152.279785
1015.181641	7148.351563
1014.040039	7164.130371
1012.897461	6864.684570
1011.754883	6996.510742
1010.612305	7086.700684
1009.469727	7060.913086
1008.326172	7098.556641
1007.182617	7422.589355
1006.039063	7665.588379
1004.895508	8061.436035
1003.750977	8435.241211
1002.606445	8428.813477
1001.461914	8234.591797
1000.316406	7771.938477
999.170898	7567.056641
998.025391	7401.550781
996.878906	7369.197754
995.733398	7485.166504
994.585938	7202.053711
993.439453	7341.982910
992.291992	7379.411621
991.145508	7316.593262
989.997070	7218.951172
988.849609	7265.089844
987.701172	7426.598145
986.552734	7315.937012
985.404297	7307.609375
984.254883	7455.930664
983.105469	7506.298340
981.956055	7595.781738
980.805664	7643.913086
979.655273	7555.088379
978.504883	7774.867676
977.354492	8055.365234
976.203125	8066.408203
975.051758	8379.262695
973.900391	8820.039063
972.748047	9175.955078
971.595703	9868.004883
970.443359	10594.416992
969.291016	11218.541016
968.137695	12228.281250
966.984375	13495.462891
965.831055	14356.774414
964.676758	15609.796875
963.522461	16537.296875
962.368164	17598.591797
961.213867	17990.398438
960.058594	18410.144531
958.903320	18446.679688
957.747070	17955.349609
956.591797	17293.404297
955.435547	16398.263672
954.278320	15419.261719
953.122070	14276.497070
951.964844	13527.530273
950.807617	12867.496094
949.649414	12160.279297
948.492188	11557.044922
947.333984	11204.490234
946.174805	10839.161133
945.016602	10182.768555
943.857422	9813.560547
942.697266	9808.947266
941.538086	9228.750977
940.377930	8965.659180
939.217773	8747.944336
938.057617	8562.650391
936.896484	8577.730469
935.735352	8321.517578
934.574219	8261.309570
933.412109	7998.846191
932.250000	8072.134766
931.087891	7893.731934
929.924805	7713.267578
928.761719	7644.681641
927.598633	7672.845215
926.435547	7632.234863
925.271484	7469.197266
924.107422	7501.674805
922.943359	7596.400391
921.778320	7508.620117
920.613281	7446.634766
919.448242	7502.680176
918.283203	7367.797852
917.117188	7278.013672
915.951172	7316.904297
914.784180	7360.060059
913.618164	7272.484863
912.451172	7315.627441
911.283203	7348.038574
910.116211	7410.407227
908.948242	7382.838867
907.779297	7295.361816
906.611328	7115.930176
905.442383	7150.482910
904.273438	7208.538574
903.103516	7138.292480
901.934570	7221.966797
900.763672	7220.126953
899.593750	7211.877441
898.422852	7075.490723
897.251953	7030.982422
896.081055	7114.570801
894.910156	7131.959473
893.738281	7209.076172
892.565430	7196.568359
891.393555	7103.033691
890.220703	7079.896973
889.047852	7116.447754
887.874023	7240.339355
886.701172	7270.437012
885.527344	7257.923828
884.352539	7277.352539
883.178711	7358.499023
882.003906	7156.573730
880.828125	7278.128906
879.653320	7303.907715
878.477539	7308.407715
877.301758	7332.036621
876.125000	7336.524414
874.948242	7222.022949
873.771484	7349.737305
872.594727	7241.659180
871.416992	7263.144531
870.239258	7369.520020
869.060547	7335.786133
867.882813	7499.364258
866.704102	7310.785156
865.524414	7317.375488
864.345703	7463.868164
863.166016	7368.687988
861.985352	7440.933594
860.805664	7434.768555
859.625000	7526.015625
858.444336	7420.326172
857.262695	7539.041016
856.081055	7604.793945
854.899414	7598.586426
853.717773	7372.434570
852.535156	7417.031738
851.352539	7495.424316
850.168945	7563.208496
848.986328	7407.013184
847.801758	7504.351563
846.618164	7337.691895
845.433594	7306.223145
844.249023	7325.419922
843.064453	7342.495605
841.878906	7349.014160
840.693359	7475.729492
839.507813	7448.474609
838.322266	7549.802246
837.135742	7598.396484
835.948242	7594.298828
834.761719	7461.732910
833.574219	7617.687500
832.386719	7630.422852
831.198242	7411.666992
830.010742	7565.403809
828.821289	7416.185059
827.632813	7334.330566
826.443359	7191.554688
825.253906	7351.486816
824.064453	7355.853516
822.874023	7324.507324
821.683594	7125.179688
820.492188	7127.498535
819.301758	7203.274902
818.110352	7190.880859
816.917969	7337.920898
815.726563	7319.203613
814.534180	7464.032227
813.340820	7459.960449
812.148438	7338.540039
810.955078	7518.858398
809.760742	7292.762695
808.567383	7142.164551
807.373047	7157.015625
806.178711	6998.159180
804.983398	7100.910156
803.788086	7019.541016
802.592773	6839.932129
801.396484	6944.729492
800.200195	6844.652344
799.003906	6872.081055
797.807617	6916.204590
796.610352	6960.303223
795.412109	6824.831055
794.214844	6829.271484
793.016602	6850.400391
791.818359	6892.377930
790.619141	6919.732422
789.420898	6970.005859
788.220703	6953.549805
787.021484	6859.999023
785.821289	6918.576660
784.621094	6977.121094
783.419922	6937.771484
782.219727	6950.480957
781.017578	6946.534180
779.816406	7104.866211
778.614258	6984.400879
777.412109	6918.062500
776.209961	6926.595215
775.006836	6972.530762
773.803711	7134.790527
772.599609	6916.846680
771.395508	6925.364746
770.191406	6981.625000
768.987305	6985.967285
767.782227	7011.054688
766.577148	7034.052246
765.371094	6949.200195
764.165039	6982.565430
762.958984	6945.440918
761.752930	6881.397949
760.545898	6914.749512
759.338867	6975.004395
758.130859	7045.577148
756.923828	6929.824219
755.715820	7014.852539
754.506836	6981.916504
753.297852	6940.724121
752.088867	7040.148926
750.879883	6941.083496
749.669922	7116.910156
748.459961	7096.378906
747.249023	6958.132813
746.038086	6974.818848
744.827148	6944.017090
743.616211	7016.413574
742.404297	6929.910645
741.191406	7012.581055
739.979492	6919.937500
738.766602	6928.352051
737.553711	6934.699219
736.339844	7145.008301
735.125977	7083.319336
733.912109	7001.071289
732.698242	6947.687012
731.483398	6949.896484
730.267578	6978.850098
729.052734	7007.786133
727.836914	7034.648438
726.621094	6925.815430
725.404297	7034.889648
724.187500	7032.953125
