#Wave		#Intensity
1819.571289	3229.889160
1818.607422	3165.083984
1817.642578	3117.742188
1816.677734	3215.520996
1815.712891	3204.456055
1814.747070	3281.453857
1813.781250	3283.326172
1812.816406	3246.365479
1811.850586	3235.303467
1810.883789	3188.018799
1809.917969	3231.303711
1808.951172	3215.079346
1807.984375	3258.339600
1807.017578	3224.018311
1806.049805	3223.315186
1805.083008	3282.051270
1804.115234	3214.158936
1803.147461	3301.286133
1802.179688	3349.636230
1801.210938	3183.656250
1800.243164	3291.385010
1799.274414	3334.543945
1798.305664	3346.719971
1797.335938	3291.816162
1796.367188	3360.739258
1795.397461	3305.856201
1794.427734	3266.465820
1793.458008	3317.306641
1792.487305	3288.238770
1791.517578	3269.489258
1790.546875	3258.475586
1789.576172	3335.027100
1788.605469	3215.864502
1787.633789	3343.875977
1786.662109	3353.444580
1785.691406	3383.593994
1784.718750	3336.554688
1783.747070	3415.561523
1782.774414	3319.679199
1781.802734	3398.655518
1780.830078	3300.248047
1779.856445	3384.333984
1778.883789	3332.217285
1777.910156	3313.515137
1776.937500	3541.354980
1775.962891	3363.430420
1774.989258	3449.978760
1774.015625	3418.435303
1773.041016	3356.115479
1772.066406	3468.261963
1771.091797	3511.112305
1770.116211	3415.478516
1769.141602	3419.867432
1768.166016	3406.312988
1767.190430	3415.826904
1766.214844	3425.336670
1765.238281	3544.982910
1764.262695	3467.391602
1763.286133	3456.401855
1762.309570	3550.366211
1761.332031	3516.330322
1760.355469	3431.136475
1759.377930	3427.838135
1758.400391	3511.497314
1757.422852	3480.056152
1756.445313	3637.804688
1755.466797	3552.676270
1754.488281	3518.691406
1753.509766	3523.042480
1752.531250	3609.127197
1751.551758	3485.773193
1750.573242	3607.572754
1749.593750	3629.769043
1748.614258	3687.684326
1747.633789	3574.625244
1746.654297	3543.244629
1745.673828	3611.342529
1744.693359	3585.067383
1743.712891	3670.971924
1742.731445	3680.377441
1741.750977	3643.911377
1740.769531	3622.746826
1739.788086	3756.964111
1738.806641	3784.168701
1737.824219	3806.269531
1736.841797	3835.997314
1735.859375	3807.179199
1734.876953	3847.071289
1733.894531	3894.577637
1732.911133	3875.938721
1731.927734	3877.649414
1730.944336	3759.876953
1729.960938	3919.192871
1728.977539	4009.831055
1727.993164	3945.457275
1727.008789	3888.731201
1726.024414	3997.093750
1725.040039	4113.026367
1724.054688	3997.918213
1723.070313	3969.145264
1722.084961	4072.322754
1721.098633	4172.919434
1720.113281	4113.692871
1719.126953	4062.098877
1718.141602	4147.422363
1717.155273	4105.980957
1716.167969	4196.326660
1715.181641	4051.020264
1714.194336	4040.021240
1713.207031	4041.688965
1712.219727	4162.352539
1711.232422	4103.242188
1710.244141	3993.541504
1709.256836	4005.338379
1708.268555	4082.901611
1707.279297	4023.858398
1706.291016	4068.512695
1705.301758	4178.877441
1704.312500	4157.764160
1703.323242	4265.535156
1702.333984	4221.674316
1701.344727	4281.393555
1700.354492	4325.935547
1699.364258	4256.841309
1698.374023	4392.243164
1697.382813	4403.923828
1696.392578	4402.983398
1695.401367	4429.792480
1694.410156	4476.767090
1693.418945	4460.681641
1692.426758	4459.729980
1691.435547	4554.557129
1690.443359	4583.825195
1689.451172	4567.730469
1688.458008	4564.237305
1687.465820	4636.295898
1686.472656	4627.753418
1685.479492	4702.285156
1684.486328	4781.818359
1683.492188	4810.993164
1682.499023	4809.967773
1681.504883	4836.608887
1680.510742	4843.121582
1679.516602	4806.892578
1678.521484	4770.678711
1677.527344	4769.662109
1676.532227	4864.119629
1675.536133	4903.273926
1674.541016	4824.376465
1673.545898	4991.576172
1672.549805	4839.894043
1671.553711	4984.430664
1670.556641	4903.073242
1669.560547	5009.904297
1668.563477	4926.067383
1667.567383	5105.569336
1666.569336	4881.349609
1665.572266	4877.804199
1664.575195	4941.923340
1663.577148	4958.410156
1662.579102	4877.195801
1661.581055	4883.671387
1660.582031	4787.483887
1659.583984	4856.560059
1658.584961	4848.018555
1657.585938	4882.020020
1656.586914	4760.895996
1655.586914	4869.938477
1654.586914	4743.867188
1653.586914	4782.861328
1652.586914	4704.355469
1651.586914	4765.833496
1650.585938	4862.265137
1649.585938	4833.752930
1648.584961	4860.198730
1647.583008	4819.213867
1646.582031	4890.587402
1645.580078	4956.938477
1644.578125	4856.068848
1643.576172	5024.688477
1642.574219	5076.002441
1641.571289	5304.355469
1640.569336	5126.205078
1639.566406	4985.521484
1638.562500	5116.550781
1637.559570	5003.337402
1636.555664	5047.116211
1635.552734	5053.516113
1634.547852	4952.838379
1633.543945	4889.546875
1632.540039	4769.034180
1631.535156	4693.365723
1630.530273	4679.929199
1629.525391	4686.397949
1628.519531	4680.429199
1627.514648	4522.791504
1626.508789	4713.244629
1625.502930	4600.402832
1624.497070	4676.456543
1623.490234	4548.764160
1622.484375	4550.282715
1621.477539	4437.570801
1620.470703	4607.937012
1619.462891	4490.295898
1618.456055	4449.636230
1617.448242	4376.738770
1616.440430	4492.398926
1615.432617	4600.569824
1614.423828	4473.135742
1613.416016	4640.761719
1612.407227	4476.195313
1611.398438	4440.553711
1610.388672	4451.999023
1609.379883	4512.978027
1608.370117	4630.888184
1607.360352	4538.297852
1606.350586	4757.642578
1605.339844	4731.884766
1604.330078	4805.110352
1603.319336	4905.516602
1602.308594	4864.903809
1601.297852	4849.035645
1600.286133	4796.090332
1599.274414	4780.243164
1598.262695	4675.440430
1597.250977	4578.093750
1596.239258	4717.919434
1595.226563	4566.273926
1594.213867	4510.985840
1593.201172	4465.595215
1592.188477	4617.665527
1591.175781	4493.311523
1590.162109	4336.938965
1589.148438	4451.942383
1588.134766	4522.510254
1587.120117	4408.142578
1586.106445	4431.856445
1585.091797	4534.419434
1584.077148	4494.036621
1583.062500	4500.473633
1582.046875	4666.988770
1581.032227	4444.395020
1580.016602	4450.837402
1579.000977	4545.881348
1577.984375	4574.445801
1576.968750	4450.466309
1575.952148	4476.578613
1574.935547	4475.629395
1573.918945	4573.024902
1572.901367	4604.009766
1571.883789	4519.476074
1570.867188	4437.434570
1569.848633	4497.906738
1568.831055	4465.024414
1567.813477	4577.029785
1566.794922	4649.708008
1565.776367	4631.540527
1564.757813	4471.053223
1563.738281	4595.228516
1562.718750	4581.989258
1561.700195	4541.779297
1560.679688	4469.712402
1559.660156	4601.135254
1558.640625	4590.355957
1557.620117	4552.627930
1556.599609	4583.508789
1555.579102	4562.942383
1554.557617	4620.743652
1553.536133	4453.285156
1552.515625	4535.561523
1551.493164	4554.176270
1550.471680	4609.482910
1549.450195	4588.935547
1548.427734	4658.884277
1547.405273	4516.080078
1546.382813	4610.459961
1545.359375	4501.942871
1544.335938	4588.954590
1543.313477	4495.145996
1542.289063	4613.874023
1541.265625	4522.541016
1540.242188	4572.851563
1539.217773	4571.880859
1538.193359	4646.562988
1537.168945	4550.420410
1536.143555	4473.833008
1535.118164	4553.365234
1534.093750	4447.549316
1533.067383	4473.420898
1532.041992	4574.837891
1531.016602	4547.061523
1529.990234	4592.384766
1528.963867	4581.666016
1527.937500	4646.444336
1526.910156	4584.588867
1525.882813	4474.075684
1524.855469	4458.522461
1523.828125	4540.303223
1522.800781	4532.040527
1521.772461	4548.102051
1520.745117	4415.827637
1519.716797	4492.684570
1518.687500	4516.035156
1517.659180	4692.470703
1516.629883	4604.008789
1515.600586	4777.920898
1514.571289	4570.480469
1513.541992	4659.344727
1512.511719	4677.773438
1511.481445	4599.115723
1510.451172	4663.651367
1509.420898	4635.974121
1508.390625	4688.347168
1507.359375	4772.221680
1506.328125	4577.254883
1505.296875	4680.507324
1504.264648	4817.643066
1503.233398	4731.817871
1502.201172	4725.966309
1501.168945	4785.505371
1500.136719	4719.111816
1499.103516	4800.413574
1498.070313	4656.595703
1497.037109	4716.097656
1496.003906	4746.543457
1494.970703	4815.675293
1493.936523	4899.286621
1492.902344	4883.736816
1491.868164	4829.518555
1490.833984	4867.156250
1489.798828	4965.180664
1488.764648	4959.291504
1487.729492	5050.008789
1486.693359	5012.713379
1485.658203	4944.050293
1484.622070	5082.983398
1483.585938	4961.246582
1482.549805	4962.601074
1481.513672	5026.667480
1480.476563	5107.586914
1479.440430	5133.018066
1478.403320	5139.154297
1477.365234	5092.268555
1476.328125	5370.678711
1475.290039	5200.906738
1474.251953	5353.936035
1473.213867	5453.925293
1472.175781	5399.798340
1471.136719	5636.926758
1470.097656	5563.531738
1469.058594	5583.996582
1468.019531	5921.957031
1466.979492	5728.305664
1465.940430	5775.167969
1464.900391	5788.356934
1463.859375	5852.008301
1462.819336	5973.299316
1461.778320	5830.289063
1460.737305	6006.771973
1459.696289	6103.937988
1458.655273	6100.231934
1457.613281	6139.730957
1456.572266	6030.431152
1455.530273	6309.845215
1454.487305	6097.412598
1453.445313	6024.163086
1452.402344	6142.755859
1451.359375	6098.292480
1450.316406	6188.058105
1449.273438	6205.901855
1448.229492	6214.155273
1447.185547	6294.256836
1446.141602	6211.493652
1445.097656	6009.062500
1444.052734	6144.206543
1443.007813	6059.134277
1441.962891	6033.910156
1440.917969	5829.296875
1439.873047	5856.745117
1438.827148	5810.060547
1437.781250	5839.890625
1436.735352	5606.813477
1435.688477	5765.702637
1434.642578	5695.186523
1433.595703	5667.691895
1432.548828	5704.681641
1431.501953	5755.979492
1430.454102	5539.925293
1429.406250	5743.962402
1428.358398	5716.484375
1427.310547	5615.072754
1426.262695	5821.345703
1425.213867	5593.585449
1424.165039	5697.270508
1423.116211	5579.264648
1422.067383	5637.634766
1421.017578	5653.098145
1419.967773	5649.500488
1418.917969	5648.285645
1417.868164	5716.111328
1416.817383	5572.068848
1415.766602	5580.388184
1414.715820	5614.875000
1413.665039	5730.221191
1412.614258	5726.608887
1411.562500	5718.242676
1410.510742	5717.011230
1409.458984	5694.389648
1408.407227	5804.839844
1407.354492	5862.979004
1406.301758	5835.588867
1405.249023	5782.090332
1404.196289	5863.935547
1403.142578	5950.492188
1402.088867	5787.841797
1401.035156	5955.042480
1399.981445	5863.621094
1398.927734	5677.377930
1397.873047	5932.219238
1396.818359	5805.303223
1395.763672	5844.338867
1394.708008	5703.278320
1393.653320	5630.978027
1392.597656	5670.024414
1391.541992	5659.327148
1390.485352	5563.407715
1389.429688	5592.974121
1388.373047	5729.015137
1387.316406	5758.532227
1386.259766	5591.710938
1385.202148	5704.013672
1384.144531	5690.957520
1383.086914	5696.816895
1382.029297	5541.967773
1380.971680	5654.182129
1379.913086	5780.520996
1378.854492	5698.968262
1377.795898	5782.738770
1376.736328	5599.707031
1375.677734	5697.623047
1374.618164	5736.502930
1373.558594	5652.686035
1372.498047	5575.981445
1371.438477	5586.562500
1370.377930	5719.737793
1369.317383	5470.993164
1368.256836	5589.994629
1367.195313	5555.794434
1366.133789	5578.144043
1365.072266	5480.372070
1364.010742	5476.826660
1362.949219	5463.865234
1361.886719	5683.914551
1360.824219	5609.733398
1359.761719	5632.038574
1358.699219	5536.731445
1357.635742	5474.386230
1356.572266	5553.129395
1355.508789	5490.807129
1354.445313	5571.861816
1353.380859	5479.017578
1352.316406	5571.783203
1351.251953	5481.327148
1350.187500	5482.480469
1349.122070	5784.105469
1348.056641	5688.966797
1346.991211	5781.582520
1345.925781	5756.862305
1344.860352	5793.132324
1343.793945	5805.937012
1342.727539	5621.808105
1341.661133	5819.808594
1340.593750	5900.554688
1339.527344	5857.094238
1338.459961	5815.994629
1337.391602	5812.381348
1336.324219	5773.649414
1335.255859	5723.230469
1334.187500	5869.415527
1333.119141	5875.150391
1332.050781	5878.542969
1330.981445	5748.625488
1329.913086	5875.969238
1328.842773	5874.682129
1327.773438	5917.801758
1326.704102	5881.454590
1325.633789	5756.347656
1324.563477	5878.875977
1323.492188	5826.212891
1322.421875	5794.584473
1321.350586	5865.670898
1320.279297	5899.387695
1319.208008	5781.437012
1318.135742	5899.129883
1317.064453	5830.203613
1315.992188	5814.933105
1314.918945	5976.829102
1313.846680	5840.343750
1312.773438	5920.610352
1311.700195	5961.239258
1310.626953	5941.295898
1309.553711	5825.892090
1308.479492	5792.017578
1307.405273	5876.858887
1306.331055	5891.853027
1305.256836	5830.067383
1304.181641	5991.597656
1303.106445	5843.775391
1302.031250	5895.959961
1300.956055	6050.393555
1299.879883	5988.638184
1298.803711	5954.789063
1297.727539	5965.088867
1296.651367	5921.969727
1295.574219	6043.718750
1294.497070	5849.714355
1293.419922	6022.481445
1292.342773	6079.157715
1291.264648	6084.772461
1290.187500	5976.740723
1289.109375	6070.487305
1288.030273	6161.873047
1286.952148	6197.592773
1285.873047	6038.649902
1284.793945	6051.212402
1283.714844	6172.629395
1282.634766	6178.208496
1281.554688	6278.705566
1280.474609	6300.459961
1279.394531	6160.214355
1278.314453	6318.486816
1277.233398	6236.125977
1276.152344	6269.430176
1275.071289	6390.578125
1273.989258	6252.775879
1272.908203	6440.892578
1271.826172	6319.312988
1270.743164	6255.537109
1269.661133	6348.835449
1268.578125	6432.855957
1267.495117	6242.128906
1266.412109	6293.822266
1265.329102	6513.936035
1264.245117	6565.544922
1263.161133	6451.066895
1262.077148	6329.721680
1260.992188	6395.166992
1259.908203	6412.179688
1258.823242	6523.663086
1257.737305	6549.853516
1256.652344	6516.144531
1255.566406	6581.471191
1254.480469	6460.280762
1253.394531	6675.206055
1252.308594	6876.226563
1251.221680	6561.785156
1250.134766	6585.620117
1249.047852	6742.828613
1247.960938	6706.831055
1246.873047	6608.783691
1245.785156	6572.831055
1244.697266	6615.014160
1243.608398	6691.635254
1242.520508	6556.929688
1241.431641	6546.274902
1240.342773	6645.813477
1239.252930	6552.518555
1238.164063	6521.217773
1237.074219	6432.579102
1235.984375	6454.069824
1234.893555	6493.894531
1233.802734	6494.727539
1232.712891	6500.143066
1231.621094	6503.264648
1230.530273	6268.121582
1229.438477	6390.395996
1228.346680	6246.980469
1227.254883	6332.571777
1226.163086	6347.167969
1225.070313	6350.314453
1223.977539	6147.548828
1222.884766	6157.599609
1221.791016	6238.537109
1220.698242	6243.988281
1219.604492	6130.573730
1218.510742	6019.494629
1217.416016	6079.824219
1216.321289	6087.587402
1215.227539	6170.710449
1214.131836	6048.303711
1213.037109	6074.328125
1211.941406	6155.113281
1210.845703	6144.593262
1209.750000	6209.355957
1208.653320	6226.194824
1207.557617	6167.780273
1206.460938	6289.481934
1205.363281	6242.473633
1204.266602	6268.400879
1203.168945	6251.032227
1202.071289	6176.731445
1200.973633	6154.835449
1199.875000	6208.074219
1198.777344	6284.047852
1197.678711	6209.803711
1196.579102	6251.616211
1195.480469	6318.427734
1194.380859	6257.867676
1193.281250	6233.708984
1192.181641	6084.551270
1191.081055	6167.243164
1189.980469	6136.303711
1188.879883	6246.200684
1187.779297	6247.047363
1186.677734	6191.134766
1185.576172	6251.006348
1184.474609	6215.540039
1183.373047	6191.433105
1182.270508	6301.162598
1181.167969	6329.202637
1180.065430	6320.954102
1178.962891	6076.973633
1177.859375	6250.077637
1176.755859	6402.711426
1175.652344	6272.133301
1174.548828	6198.229004
1173.444336	6420.953613
1172.339844	6211.233398
1171.235352	6395.379395
1170.129883	6310.198730
1169.024414	6263.510742
1167.918945	6262.072754
1166.813477	6375.944336
1165.708008	6336.052246
1164.601563	6472.452148
1163.495117	6400.922363
1162.388672	6446.886719
1161.281250	6540.255371
1160.173828	6475.530273
1159.066406	6516.928711
1157.958984	6413.870605
1156.850586	6507.157227
1155.742188	6496.634277
1154.633789	6375.607422
1153.525391	6360.608398
1152.416016	6460.580078
1151.306641	6350.911621
1150.197266	6367.470215
1149.087891	6237.597656
1147.977539	6454.612793
1146.867188	6272.991699
1145.756836	6377.341797
1144.645508	6319.602051
1143.534180	6340.639648
1142.422852	6442.649414
1141.311523	6375.935547
1140.200195	6322.742676
1139.087891	6539.329590
1137.975586	6495.111328
1136.862305	6322.837891
1135.750000	6496.589844
1134.636719	6292.952148
1133.523438	6390.285645
1132.409180	6487.573242
1131.295898	6622.968262
1130.181641	6527.188477
1129.067383	6429.209473
1127.952148	6521.908203
1126.836914	6477.787109
1125.721680	6588.363281
1124.606445	6477.010254
1123.491211	6565.126465
1122.375000	6574.795898
1121.258789	6443.364258
1120.142578	6573.966309
1119.025391	6534.375488
1117.908203	6526.134766
1116.791016	6482.096680
1115.673828	6487.292480
1114.555664	6579.707031
1113.437500	6596.054688
1112.319336	6668.279785
1111.200195	6646.604004
1110.082031	6687.500488
1108.962891	6545.199707
1107.842773	6668.731934
1106.723633	6691.728516
1105.603516	6801.772461
1104.483398	6791.248535
1103.363281	6863.284668
1102.242188	6868.364258
1101.121094	6735.168457
1100.000000	6847.297363
1098.877930	6852.374023
1097.756836	7049.108398
1096.634766	6902.622559
1095.512695	7054.698730
1094.389648	7046.355469
1093.266602	7202.776855
1092.143555	7278.987793
1091.020508	7034.694824
1089.896484	7233.278809
1088.772461	7402.851074
1087.648438	7358.848145
1086.524414	7192.580078
1085.399414	7375.375000
1084.274414	7553.637695
1083.149414	7436.317383
1082.024414	7532.292480
1080.898438	7579.364746
1079.772461	7824.012207
1078.645508	8106.276855
1077.519531	8004.492188
1076.392578	7951.564941
1075.265625	8202.541016
1074.137695	8147.372070
1073.010742	8185.343262
1071.882813	8150.150391
1070.754883	8236.852539
1069.625977	8206.091797
1068.497070	8137.691406
1067.368164	7994.031738
1066.239258	8062.972168
1065.109375	7852.995605
1063.979492	7848.910645
1062.849609	7822.703613
1061.719727	7796.507813
1060.588867	7628.803223
1059.458008	7520.867188
1058.327148	7594.217285
1057.195313	7450.983887
1056.063477	7365.255371
1054.931641	7431.960449
1053.799805	7454.470703
1052.666992	7337.893555
1051.534180	7285.374512
1050.401367	7336.584473
1049.268555	7332.619629
1048.134766	7359.531738
1047.000977	7527.543457
1045.866211	7534.554199
1044.732422	7437.979492
1043.597656	7332.636719
1042.462891	7696.536621
1041.327148	7478.864746
1040.192383	7736.869141
1039.056641	7792.238281
1037.919922	7686.930664
1036.784180	7918.293457
1035.647461	7905.386719
1034.510742	7938.666016
1033.373047	7914.765625
1032.236328	8055.726563
1031.098633	7961.487305
1029.959961	7722.292969
1028.822266	7836.837402
1027.683594	7953.520508
1026.544922	7876.954590
1025.406250	7800.424316
1024.266602	7745.872559
1023.126953	7711.090332
1021.987305	7678.516602
1020.846680	7507.816895
1019.707031	7611.220215
1018.565430	7578.690430
1017.424805	7497.970703
1016.283203	7430.432129
1015.142578	7408.916504
1014.000000	7562.570801
1012.858398	7365.912598
1011.715820	7412.266113
1010.573242	7570.179199
1009.430664	7454.591797
1008.287109	7562.118164
1007.143555	7866.358887
1006.000000	8107.062012
1004.855469	8671.063477
1003.711914	8865.571289
1002.567383	9046.876953
1001.421875	8773.894531
1000.277344	8319.845703
999.131836	8044.988281
997.985352	7866.274414
996.839844	7672.375488
995.693359	7559.267090
994.546875	7705.685059
993.400391	7677.637207
992.252930	7682.292480
991.105469	7610.685059
989.958008	7789.616211
988.809570	7835.613770
987.662109	7735.713379
986.512695	7735.988281
985.364258	7697.091309
984.214844	7756.114746
983.065430	7936.913574
981.916016	8011.068359
980.766602	8022.138672
979.616211	8074.498535
978.465820	8035.566895
977.314453	8255.169922
976.164063	8680.992188
975.012695	8841.699219
973.860352	9317.090820
972.708984	9672.881836
971.556641	10150.000000
970.404297	10930.567383
969.250977	11552.434570
968.098633	12588.102539
966.944336	13330.631836
965.791016	14341.503906
964.637695	15399.535156
963.483398	16194.957031
962.328125	16944.505859
961.173828	17565.953125
960.018555	17522.628906
958.863281	17479.324219
957.708008	16763.255859
956.551758	16250.839844
955.395508	15468.400391
954.239258	14837.665039
953.082031	13796.626953
951.924805	13039.141602
950.767578	12493.716797
949.610352	11760.684570
948.452148	11302.205078
947.293945	11085.697266
946.134766	10629.769531
944.976563	10230.158203
943.817383	9843.686523
942.658203	9608.344727
941.498047	9483.062500
940.337891	8959.129883
939.177734	8999.976563
938.017578	8569.051758
936.856445	8644.429688
935.695313	8461.405273
934.534180	8330.130859
933.372070	8235.503906
932.209961	8084.986328
931.047852	7889.374512
929.884766	8035.761230
928.722656	7990.742676
927.558594	7909.207520
926.395508	7677.303223
925.231445	7819.293945
924.067383	7727.121582
922.903320	7849.701172
921.738281	7697.461914
920.573242	7766.334473
919.408203	7652.808105
918.243164	7665.887207
917.077148	7597.472168
915.911133	7730.609375
914.744141	7767.230469
913.578125	7411.711426
912.411133	7636.904297
911.243164	7656.383301
910.076172	7343.980469
908.908203	7459.846680
907.739258	7470.791504
906.571289	7413.266602
905.402344	7552.550293
904.233398	7360.312988
903.063477	7277.201660
901.893555	7407.860352
900.723633	7442.297363
899.553711	7455.353516
898.382813	7526.064453
897.211914	7485.711914
896.041016	7402.687012
894.869141	7518.167480
893.698242	7503.445313
892.525391	7426.874023
891.353516	7527.328613
890.180664	7508.347168
889.007813	7408.384766
887.833984	7568.423828
886.661133	7468.494141
885.486328	7564.542969
884.312500	7600.925781
883.137695	7635.160156
881.962891	7758.751953
880.788086	7669.531738
879.612305	7665.432617
878.437500	7742.136719
877.260742	7752.898926
876.084961	7674.392578
874.908203	7734.032227
873.731445	7721.417969
872.553711	7592.008301
871.375977	7626.141602
870.198242	7564.741699
869.020508	7558.543457
867.841797	7730.548828
866.663086	7597.054199
865.484375	7656.579102
864.304688	7599.482422
863.125000	7595.395508
861.945313	7682.413086
860.764648	7705.839355
859.583984	7695.370117
858.403320	7718.777832
857.222656	7621.531250
856.041016	7725.349121
854.859375	7738.149414
853.676758	7981.460449
852.494141	7873.668457
851.311523	7837.799316
850.128906	7799.833496
848.945313	7702.731934
847.761719	7738.741699
846.578125	7759.950195
845.393555	7593.267090
844.208984	7747.457520
843.024414	7848.818848
841.838867	7646.379395
840.653320	7781.451660
839.467773	7743.575684
838.281250	7610.871582
837.094727	7669.985352
835.908203	7739.599121
834.720703	7716.509766
833.533203	7729.224121
832.345703	7619.843750
831.158203	7676.765625
829.969727	7584.284180
828.781250	7462.404297
827.591797	7487.776855
826.403320	7727.555664
825.212891	7467.022949
824.023438	7450.348633
822.833008	7473.591309
821.642578	7545.118652
820.452148	7524.233398
819.260742	7683.858398
818.069336	7738.482422
816.877930	7719.655762
815.685547	7996.539551
814.493164	8239.729492
813.300781	8411.522461
812.107422	8258.417969
810.914063	8490.865234
809.720703	8318.968750
808.526367	8203.694336
807.332031	7864.497559
806.137695	7661.506836
804.942383	7454.437988
803.747070	7306.043457
802.551758	7312.464844
801.355469	7312.609863
800.160156	7333.652832
798.962891	7185.441895
797.766602	7248.281250
796.569336	7275.584961
795.372070	7010.590332
794.173828	7108.903320
792.975586	7301.060059
791.777344	7111.364258
790.578125	7144.916992
789.379883	7101.307129
788.179688	7088.984863
786.980469	7049.578125
785.780273	7178.935547
784.580078	7147.853516
783.378906	7114.704590
782.178711	7164.835449
780.976563	7100.480957
779.775391	7023.676758
778.573242	7055.067871
777.371094	7088.520020
776.168945	7084.534668
774.965820	7178.226563
773.762695	7161.749512
772.558594	7068.426758
771.354492	7199.420898
770.150391	7104.059082
768.946289	6998.370117
767.741211	6990.255859
766.536133	7011.184570
765.330078	7011.363281
764.124023	7086.174805
762.917969	7138.145996
761.711914	7038.826172
760.504883	7113.564941
759.297852	7006.018555
758.089844	7209.087402
756.882813	7103.640137
755.673828	7141.027344
754.465820	7103.919922
753.256836	7192.987793
752.047852	7031.828613
750.837891	7275.890137
749.628906	6945.343750
748.417969	6926.925293
747.208008	7046.892090
745.997070	7080.071777
744.786133	7076.076172
743.574219	6942.072266
742.362305	7187.745117
741.150391	7031.093262
739.938477	7161.135742
738.725586	6988.082520
737.512695	6949.075195
736.298828	6992.498047
735.084961	7112.104004
733.871094	7033.967285
732.656250	7044.389648
731.441406	7112.428223
730.226563	7166.026367
729.010742	7098.238281
727.794922	7036.654785
726.579102	6929.876953
725.363281	6909.474121
724.146484	7113.032227
