#X		#Y		#Wave		#Intensity
-423.500000	-1650.000000	1819.619141	2286.347412
-423.500000	-1650.000000	1818.655273	2390.036621
-423.500000	-1650.000000	1817.690430	2306.580566
-423.500000	-1650.000000	1816.725586	2443.404297
-423.500000	-1650.000000	1815.760742	2328.886719
-423.500000	-1650.000000	1814.794922	2426.796387
-423.500000	-1650.000000	1813.830078	2371.888672
-423.500000	-1650.000000	1812.864258	2438.680176
-423.500000	-1650.000000	1811.898438	2370.852539
-423.500000	-1650.000000	1810.931641	2460.904541
-423.500000	-1650.000000	1809.965820	2393.101807
-423.500000	-1650.000000	1808.999023	2423.618408
-423.500000	-1650.000000	1808.032227	2469.637695
-423.500000	-1650.000000	1807.065430	2479.440674
-423.500000	-1650.000000	1806.098633	2349.656006
-423.500000	-1650.000000	1805.130859	2434.426270
-423.500000	-1650.000000	1804.163086	2402.890381
-423.500000	-1650.000000	1803.195313	2477.279297
-423.500000	-1650.000000	1802.227539	2319.199463
-423.500000	-1650.000000	1801.259766	2571.736572
-423.500000	-1650.000000	1800.291016	2382.726807
-423.500000	-1650.000000	1799.322266	2469.960205
-423.500000	-1650.000000	1798.353516	2410.073975
-423.500000	-1650.000000	1797.384766	2419.868652
-423.500000	-1650.000000	1796.415039	2535.408691
-423.500000	-1650.000000	1795.445313	2558.065674
-423.500000	-1650.000000	1794.475586	2516.259277
-423.500000	-1650.000000	1793.505859	2572.418945
-423.500000	-1650.000000	1792.536133	2507.434326
-423.500000	-1650.000000	1791.565430	2470.819336
-423.500000	-1650.000000	1790.594727	2405.885010
-423.500000	-1650.000000	1789.624023	2503.225342
-423.500000	-1650.000000	1788.653320	2471.784424
-423.500000	-1650.000000	1787.681641	2569.068115
-423.500000	-1650.000000	1786.710938	2468.137939
-423.500000	-1650.000000	1785.739258	2439.298096
-423.500000	-1650.000000	1784.767578	2482.502197
-423.500000	-1650.000000	1783.794922	2453.671875
-423.500000	-1650.000000	1782.823242	2501.997070
-423.500000	-1650.000000	1781.850586	2527.163330
-423.500000	-1650.000000	1780.877930	2521.474854
-423.500000	-1650.000000	1779.905273	2441.266113
-423.500000	-1650.000000	1778.931641	2566.627930
-423.500000	-1650.000000	1777.958984	2460.757568
-423.500000	-1650.000000	1776.985352	2586.060791
-423.500000	-1650.000000	1776.011719	2564.960693
-423.500000	-1650.000000	1775.038086	2510.499023
-423.500000	-1650.000000	1774.063477	2540.752930
-423.500000	-1650.000000	1773.088867	2540.203125
-423.500000	-1650.000000	1772.114258	2562.741211
-423.500000	-1650.000000	1771.139648	2572.446045
-423.500000	-1650.000000	1770.165039	2574.454102
-423.500000	-1650.000000	1769.189453	2558.515625
-423.500000	-1650.000000	1768.214844	2545.147217
-423.500000	-1650.000000	1767.239258	2600.972900
-423.500000	-1650.000000	1766.262695	2684.956299
-423.500000	-1650.000000	1765.287109	2571.673584
-423.500000	-1650.000000	1764.310547	2527.583252
-423.500000	-1650.000000	1763.333984	2565.442383
-423.500000	-1650.000000	1762.357422	2577.687256
-423.500000	-1650.000000	1761.380859	2559.216553
-423.500000	-1650.000000	1760.403320	2673.804199
-423.500000	-1650.000000	1759.426758	2586.251465
-423.500000	-1650.000000	1758.449219	2624.056885
-423.500000	-1650.000000	1757.471680	2666.960205
-423.500000	-1650.000000	1756.493164	2676.610840
-423.500000	-1650.000000	1755.515625	2642.807129
-423.500000	-1650.000000	1754.537109	2639.682129
-423.500000	-1650.000000	1753.558594	2649.332520
-423.500000	-1650.000000	1752.580078	2561.916992
-423.500000	-1650.000000	1751.600586	2571.579834
-423.500000	-1650.000000	1750.621094	2578.685547
-423.500000	-1650.000000	1749.641602	2670.023926
-423.500000	-1650.000000	1748.662109	2761.322998
-423.500000	-1650.000000	1747.682617	2628.050537
-423.500000	-1650.000000	1746.702148	2691.258789
-423.500000	-1650.000000	1745.722656	2711.082764
-423.500000	-1650.000000	1744.742188	2593.206055
-423.500000	-1650.000000	1743.761719	2725.212402
-423.500000	-1650.000000	1742.780273	2716.979980
-423.500000	-1650.000000	1741.799805	2701.106445
-423.500000	-1650.000000	1740.818359	2741.288574
-423.500000	-1650.000000	1739.836914	2862.960938
-423.500000	-1650.000000	1738.854492	2801.227783
-423.500000	-1650.000000	1737.873047	2815.902100
-423.500000	-1650.000000	1736.890625	2800.024170
-423.500000	-1650.000000	1735.908203	2906.309814
-423.500000	-1650.000000	1734.925781	2814.087891
-423.500000	-1650.000000	1733.943359	2782.957520
-423.500000	-1650.000000	1732.959961	2810.336182
-423.500000	-1650.000000	1731.976563	2883.472656
-423.500000	-1650.000000	1730.993164	2923.529053
-423.500000	-1650.000000	1730.009766	2917.818359
-423.500000	-1650.000000	1729.026367	2919.733398
-423.500000	-1650.000000	1728.041992	2860.674072
-423.500000	-1650.000000	1727.057617	2959.121094
-423.500000	-1650.000000	1726.073242	2902.618164
-423.500000	-1650.000000	1725.088867	2990.858398
-423.500000	-1650.000000	1724.103516	3028.292969
-423.500000	-1650.000000	1723.119141	3025.105957
-423.500000	-1650.000000	1722.133789	2994.010010
-423.500000	-1650.000000	1721.147461	2965.464111
-423.500000	-1650.000000	1720.162109	3023.161621
-423.500000	-1650.000000	1719.175781	3040.263672
-423.500000	-1650.000000	1718.190430	3138.482422
-423.500000	-1650.000000	1717.204102	3137.810303
-423.500000	-1650.000000	1716.216797	3091.525635
-423.500000	-1650.000000	1715.230469	3075.662842
-423.500000	-1650.000000	1714.243164	3080.070313
-423.500000	-1650.000000	1713.255859	2965.452637
-423.500000	-1650.000000	1712.268555	2974.945557
-423.500000	-1650.000000	1711.281250	3080.624756
-423.500000	-1650.000000	1710.292969	3052.126953
-423.500000	-1650.000000	1709.305664	2960.385254
-423.500000	-1650.000000	1708.317383	3055.880859
-423.500000	-1650.000000	1707.328125	3108.339844
-423.500000	-1650.000000	1706.339844	3105.146484
-423.500000	-1650.000000	1705.350586	3104.482666
-423.500000	-1650.000000	1704.362305	3174.590088
-423.500000	-1650.000000	1703.373047	3267.410645
-423.500000	-1650.000000	1702.382813	3266.712402
-423.500000	-1650.000000	1701.393555	3266.014404
-423.500000	-1650.000000	1700.403320	3341.077881
-423.500000	-1650.000000	1699.413086	3337.839355
-423.500000	-1650.000000	1698.422852	3301.786133
-423.500000	-1650.000000	1697.432617	3422.221680
-423.500000	-1650.000000	1696.441406	3381.119385
-423.500000	-1650.000000	1695.450195	3445.987061
-423.500000	-1650.000000	1694.458984	3551.181641
-423.500000	-1650.000000	1693.467773	3484.861816
-423.500000	-1650.000000	1692.476563	3549.665771
-423.500000	-1650.000000	1691.484375	3589.236816
-423.500000	-1650.000000	1690.492188	3535.551025
-423.500000	-1650.000000	1689.500000	3504.563232
-423.500000	-1650.000000	1688.507813	3523.966797
-423.500000	-1650.000000	1687.514648	3578.619629
-423.500000	-1650.000000	1686.521484	3673.534424
-423.500000	-1650.000000	1685.528320	3803.650879
-423.500000	-1650.000000	1684.535156	3649.316895
-423.500000	-1650.000000	1683.541992	3585.632813
-423.500000	-1650.000000	1682.547852	3735.810303
-423.500000	-1650.000000	1681.553711	3719.922852
-423.500000	-1650.000000	1680.559570	3658.779053
-423.500000	-1650.000000	1679.565430	3788.731934
-423.500000	-1650.000000	1678.571289	3765.302490
-423.500000	-1650.000000	1677.576172	3809.734619
-423.500000	-1650.000000	1676.581055	3879.272217
-423.500000	-1650.000000	1675.585938	3878.445801
-423.500000	-1650.000000	1674.590820	3827.391602
-423.500000	-1650.000000	1673.594727	3919.478760
-423.500000	-1650.000000	1672.598633	3808.188965
-423.500000	-1650.000000	1671.602539	3965.495850
-423.500000	-1650.000000	1670.606445	3911.956787
-423.500000	-1650.000000	1669.610352	3906.106445
-423.500000	-1650.000000	1668.613281	3897.750244
-423.500000	-1650.000000	1667.616211	3871.843750
-423.500000	-1650.000000	1666.619141	3936.205078
-423.500000	-1650.000000	1665.622070	3912.807861
-423.500000	-1650.000000	1664.624023	3964.602783
-423.500000	-1650.000000	1663.625977	3881.076416
-423.500000	-1650.000000	1662.627930	3787.565430
-423.500000	-1650.000000	1661.629883	3922.000977
-423.500000	-1650.000000	1660.631836	3943.702148
-423.500000	-1650.000000	1659.632813	3770.128174
-423.500000	-1650.000000	1658.633789	3861.932617
-423.500000	-1650.000000	1657.634766	3898.646240
-423.500000	-1650.000000	1656.635742	3687.665283
-423.500000	-1650.000000	1655.636719	3734.405273
-423.500000	-1650.000000	1654.636719	3773.623047
-423.500000	-1650.000000	1653.636719	3735.317627
-423.500000	-1650.000000	1652.636719	3754.520996
-423.500000	-1650.000000	1651.636719	3763.719238
-423.500000	-1650.000000	1650.635742	3710.448242
-423.500000	-1650.000000	1649.634766	3719.651855
-423.500000	-1650.000000	1648.633789	3768.812500
-423.500000	-1650.000000	1647.632813	3830.437012
-423.500000	-1650.000000	1646.631836	3822.133545
-423.500000	-1650.000000	1645.629883	3811.337646
-423.500000	-1650.000000	1644.627930	3865.427246
-423.500000	-1650.000000	1643.625977	4051.723633
-423.500000	-1650.000000	1642.624023	3998.480957
-423.500000	-1650.000000	1641.621094	3980.174805
-423.500000	-1650.000000	1640.618164	4118.954590
-423.500000	-1650.000000	1639.615234	4200.341797
-423.500000	-1650.000000	1638.612305	4236.833496
-423.500000	-1650.000000	1637.609375	4108.855469
-423.500000	-1650.000000	1636.605469	4018.299805
-423.500000	-1650.000000	1635.601563	3987.558350
-423.500000	-1650.000000	1634.597656	4004.142578
-423.500000	-1650.000000	1633.593750	3856.405273
-423.500000	-1650.000000	1632.589844	3713.708740
-423.500000	-1650.000000	1631.584961	3665.637939
-423.500000	-1650.000000	1630.580078	3644.955322
-423.500000	-1650.000000	1629.575195	3611.843994
-423.500000	-1650.000000	1628.569336	3616.051270
-423.500000	-1650.000000	1627.564453	3592.905762
-423.500000	-1650.000000	1626.558594	3542.424805
-423.500000	-1650.000000	1625.552734	3390.064453
-423.500000	-1650.000000	1624.546875	3540.921143
-423.500000	-1650.000000	1623.540039	3572.465820
-423.500000	-1650.000000	1622.534180	3420.195801
-423.500000	-1650.000000	1621.527344	3407.053467
-423.500000	-1650.000000	1620.520508	3498.192139
-423.500000	-1650.000000	1619.512695	3355.963135
-423.500000	-1650.000000	1618.505859	3347.805908
-423.500000	-1650.000000	1617.498047	3359.501465
-423.500000	-1650.000000	1616.490234	3348.865967
-423.500000	-1650.000000	1615.482422	3377.916748
-423.500000	-1650.000000	1614.473633	3414.393799
-423.500000	-1650.000000	1613.465820	3433.501953
-423.500000	-1650.000000	1612.457031	3296.453857
-423.500000	-1650.000000	1611.448242	3454.347412
-423.500000	-1650.000000	1610.438477	3361.947510
-423.500000	-1650.000000	1609.429688	3418.204346
-423.500000	-1650.000000	1608.419922	3370.427002
-423.500000	-1650.000000	1607.410156	3451.416992
-423.500000	-1650.000000	1606.400391	3485.340332
-423.500000	-1650.000000	1605.390625	3548.947266
-423.500000	-1650.000000	1604.379883	3572.937744
-423.500000	-1650.000000	1603.369141	3611.760986
-423.500000	-1650.000000	1602.358398	3635.727539
-423.500000	-1650.000000	1601.347656	3620.119873
-423.500000	-1650.000000	1600.335938	3594.629639
-423.500000	-1650.000000	1599.325195	3596.339111
-423.500000	-1650.000000	1598.313477	3570.864502
-423.500000	-1650.000000	1597.300781	3493.516602
-423.500000	-1650.000000	1596.289063	3500.186035
-423.500000	-1650.000000	1595.276367	3464.869141
-423.500000	-1650.000000	1594.264648	3419.690430
-423.500000	-1650.000000	1593.251953	3335.033936
-423.500000	-1650.000000	1592.238281	3267.689453
-423.500000	-1650.000000	1591.225586	3419.982666
-423.500000	-1650.000000	1590.211914	3404.455566
-423.500000	-1650.000000	1589.198242	3366.736328
-423.500000	-1650.000000	1588.184570	3361.090332
-423.500000	-1650.000000	1587.170898	3333.257813
-423.500000	-1650.000000	1586.156250	3418.822754
-423.500000	-1650.000000	1585.141602	3270.234619
-423.500000	-1650.000000	1584.126953	3427.228271
-423.500000	-1650.000000	1583.112305	3396.941406
-423.500000	-1650.000000	1582.097656	3386.369629
-423.500000	-1650.000000	1581.082031	3301.933594
-423.500000	-1650.000000	1580.066406	3288.924316
-423.500000	-1650.000000	1579.050781	3366.986816
-423.500000	-1650.000000	1578.035156	3339.204834
-423.500000	-1650.000000	1577.018555	3392.621094
-423.500000	-1650.000000	1576.001953	3384.522461
-423.500000	-1650.000000	1574.985352	3499.385254
-423.500000	-1650.000000	1573.968750	3397.838867
-423.500000	-1650.000000	1572.952148	3497.900879
-423.500000	-1650.000000	1571.934570	3298.093750
-423.500000	-1650.000000	1570.916992	3285.108887
-423.500000	-1650.000000	1569.899414	3363.021729
-423.500000	-1650.000000	1568.881836	3438.445557
-423.500000	-1650.000000	1567.863281	3388.605957
-423.500000	-1650.000000	1566.844727	3461.536865
-423.500000	-1650.000000	1565.826172	3401.895264
-423.500000	-1650.000000	1564.807617	3371.726318
-423.500000	-1650.000000	1563.789063	3329.302734
-423.500000	-1650.000000	1562.769531	3380.107422
-423.500000	-1650.000000	1561.750000	3502.009766
-423.500000	-1650.000000	1560.730469	3383.577393
-423.500000	-1650.000000	1559.710938	3375.505371
-423.500000	-1650.000000	1558.690430	3396.846680
-423.500000	-1650.000000	1557.669922	3325.067139
-423.500000	-1650.000000	1556.649414	3517.894775
-423.500000	-1650.000000	1555.628906	3411.829834
-423.500000	-1650.000000	1554.608398	3322.950928
-423.500000	-1650.000000	1553.586914	3491.173584
-423.500000	-1650.000000	1552.565430	3478.194336
-423.500000	-1650.000000	1551.543945	3377.121338
-423.500000	-1650.000000	1550.522461	3552.564941
-423.500000	-1650.000000	1549.500000	3422.165039
-423.500000	-1650.000000	1548.477539	3396.982422
-423.500000	-1650.000000	1547.455078	3450.053955
-423.500000	-1650.000000	1546.432617	3503.102783
-423.500000	-1650.000000	1545.410156	3392.375732
-423.500000	-1650.000000	1544.386719	3389.212158
-423.500000	-1650.000000	1543.363281	3378.720459
-423.500000	-1650.000000	1542.339844	3421.968506
-423.500000	-1650.000000	1541.316406	3411.474121
-423.500000	-1650.000000	1540.291992	3383.893555
-423.500000	-1650.000000	1539.268555	3358.765381
-423.500000	-1650.000000	1538.244141	3460.551025
-423.500000	-1650.000000	1537.218750	3462.256104
-423.500000	-1650.000000	1536.194336	3466.399658
-423.500000	-1650.000000	1535.168945	3492.491455
-423.500000	-1650.000000	1534.143555	3442.982178
-423.500000	-1650.000000	1533.118164	3400.807373
-423.500000	-1650.000000	1532.092773	3436.645020
-423.500000	-1650.000000	1531.066406	3431.041504
-423.500000	-1650.000000	1530.041016	3471.729736
-423.500000	-1650.000000	1529.014648	3490.478516
-423.500000	-1650.000000	1527.987305	3431.290527
-423.500000	-1650.000000	1526.960938	3498.734619
-423.500000	-1650.000000	1525.933594	3510.162354
-423.500000	-1650.000000	1524.906250	3421.802734
-423.500000	-1650.000000	1523.878906	3340.780029
-423.500000	-1650.000000	1522.851563	3507.925049
-423.500000	-1650.000000	1521.823242	3443.943115
-423.500000	-1650.000000	1520.795898	3435.916260
-423.500000	-1650.000000	1519.767578	3481.377441
-423.500000	-1650.000000	1518.738281	3434.455566
-423.500000	-1650.000000	1517.709961	3414.284668
-423.500000	-1650.000000	1516.680664	3537.467285
-423.500000	-1650.000000	1515.651367	3439.552734
-423.500000	-1650.000000	1514.622070	3356.250732
-423.500000	-1650.000000	1513.592773	3537.639160
-423.500000	-1650.000000	1512.562500	3347.540771
-423.500000	-1650.000000	1511.532227	3553.123535
-423.500000	-1650.000000	1510.501953	3596.044434
-423.500000	-1650.000000	1509.471680	3527.352539
-423.500000	-1650.000000	1508.441406	3618.769043
-423.500000	-1650.000000	1507.410156	3477.353027
-423.500000	-1650.000000	1506.378906	3636.624756
-423.500000	-1650.000000	1505.347656	3473.449463
-423.500000	-1650.000000	1504.316406	3526.024658
-423.500000	-1650.000000	1503.284180	3532.542969
-423.500000	-1650.000000	1502.251953	3468.809814
-423.500000	-1650.000000	1501.219727	3627.912598
-423.500000	-1650.000000	1500.187500	3501.231689
-423.500000	-1650.000000	1499.154297	3623.947266
-423.500000	-1650.000000	1498.122070	3659.479980
-423.500000	-1650.000000	1497.088867	3593.366699
-423.500000	-1650.000000	1496.054688	3570.828125
-423.500000	-1650.000000	1495.021484	3616.023682
-423.500000	-1650.000000	1493.987305	3610.416992
-423.500000	-1650.000000	1492.954102	3658.002197
-423.500000	-1650.000000	1491.918945	3686.229248
-423.500000	-1650.000000	1490.884766	3789.361328
-423.500000	-1650.000000	1489.850586	3761.975830
-423.500000	-1650.000000	1488.815430	3722.523682
-423.500000	-1650.000000	1487.780273	3765.202637
-423.500000	-1650.000000	1486.745117	3800.619385
-423.500000	-1650.000000	1485.708984	3843.263184
-423.500000	-1650.000000	1484.673828	3808.653564
-423.500000	-1650.000000	1483.637695	3754.753662
-423.500000	-1650.000000	1482.601563	3905.944580
-423.500000	-1650.000000	1481.564453	3837.573975
-423.500000	-1650.000000	1480.528320	3839.166992
-423.500000	-1650.000000	1479.491211	3881.746338
-423.500000	-1650.000000	1478.454102	3883.328857
-423.500000	-1650.000000	1477.416992	4005.409912
-423.500000	-1650.000000	1476.378906	3973.231934
-423.500000	-1650.000000	1475.341797	4032.607910
-423.500000	-1650.000000	1474.303711	4108.817871
-423.500000	-1650.000000	1473.264648	4160.915039
-423.500000	-1650.000000	1472.226563	4246.693848
-423.500000	-1650.000000	1471.187500	4378.167480
-423.500000	-1650.000000	1470.149414	4220.816895
-423.500000	-1650.000000	1469.110352	4246.379883
-423.500000	-1650.000000	1468.070313	4377.768066
-423.500000	-1650.000000	1467.031250	4417.715332
-423.500000	-1650.000000	1465.991211	4433.601563
-423.500000	-1650.000000	1464.951172	4492.750000
-423.500000	-1650.000000	1463.911133	4518.226563
-423.500000	-1650.000000	1462.870117	4555.705566
-423.500000	-1650.000000	1461.830078	4549.926758
-423.500000	-1650.000000	1460.789063	4724.283691
-423.500000	-1650.000000	1459.748047	4660.840820
-423.500000	-1650.000000	1458.706055	4839.899902
-423.500000	-1650.000000	1457.665039	4639.645508
-423.500000	-1650.000000	1456.623047	4703.445313
-423.500000	-1650.000000	1455.581055	4827.197754
-423.500000	-1650.000000	1454.539063	4735.014648
-423.500000	-1650.000000	1453.496094	4762.779297
-423.500000	-1650.000000	1452.454102	4788.134277
-423.500000	-1650.000000	1451.411133	4832.655273
-423.500000	-1650.000000	1450.368164	4846.000488
-423.500000	-1650.000000	1449.324219	4799.436523
-423.500000	-1650.000000	1448.281250	4752.892090
-423.500000	-1650.000000	1447.237305	4706.367188
-423.500000	-1650.000000	1446.193359	4746.066895
-423.500000	-1650.000000	1445.148438	4680.410156
-423.500000	-1650.000000	1444.104492	4796.691895
-423.500000	-1650.000000	1443.059570	4726.265625
-423.500000	-1650.000000	1442.014648	4538.634766
-423.500000	-1650.000000	1440.969727	4566.366211
-423.500000	-1650.000000	1439.923828	4562.995605
-423.500000	-1650.000000	1438.878906	4509.415527
-423.500000	-1650.000000	1437.833008	4561.039063
-423.500000	-1650.000000	1436.787109	4390.372559
-423.500000	-1650.000000	1435.740234	4341.641602
-423.500000	-1650.000000	1434.694336	4443.434570
-423.500000	-1650.000000	1433.647461	4318.282715
-423.500000	-1650.000000	1432.600586	4300.640625
-423.500000	-1650.000000	1431.552734	4304.492188
-423.500000	-1650.000000	1430.505859	4308.341797
-423.500000	-1650.000000	1429.458008	4336.053223
-423.500000	-1650.000000	1428.410156	4406.697754
-423.500000	-1650.000000	1427.362305	4403.365723
-423.500000	-1650.000000	1426.313477	4357.107910
-423.500000	-1650.000000	1425.265625	4363.324707
-423.500000	-1650.000000	1424.216797	4252.730957
-423.500000	-1650.000000	1423.167969	4387.665527
-423.500000	-1650.000000	1422.118164	4260.434082
-423.500000	-1650.000000	1421.069336	4283.340820
-423.500000	-1650.000000	1420.019531	4353.872559
-423.500000	-1650.000000	1418.969727	4260.067383
-423.500000	-1650.000000	1417.919922	4297.242676
-423.500000	-1650.000000	1416.869141	4289.177246
-423.500000	-1650.000000	1415.818359	4259.697754
-423.500000	-1650.000000	1414.767578	4420.566895
-423.500000	-1650.000000	1413.716797	4300.680176
-423.500000	-1650.000000	1412.666016	4451.958008
-423.500000	-1650.000000	1411.614258	4439.110840
-423.500000	-1650.000000	1410.562500	4457.171875
-423.500000	-1650.000000	1409.510742	4506.121094
-423.500000	-1650.000000	1408.458984	4426.737793
-423.500000	-1650.000000	1407.406250	4473.296387
-423.500000	-1650.000000	1406.353516	4612.463379
-423.500000	-1650.000000	1405.300781	4575.850098
-423.500000	-1650.000000	1404.248047	4565.366699
-423.500000	-1650.000000	1403.194336	4476.560059
-423.500000	-1650.000000	1402.140625	4606.112793
-423.500000	-1650.000000	1401.086914	4600.374023
-423.500000	-1650.000000	1400.033203	4506.871582
-423.500000	-1650.000000	1398.979492	4505.898926
-423.500000	-1650.000000	1397.924805	4457.505859
-423.500000	-1650.000000	1396.870117	4380.687012
-423.500000	-1650.000000	1395.815430	4410.550781
-423.500000	-1650.000000	1394.759766	4464.096191
-423.500000	-1650.000000	1393.705078	4496.297363
-423.500000	-1650.000000	1392.649414	4410.061523
-423.500000	-1650.000000	1391.593750	4335.702148
-423.500000	-1650.000000	1390.537109	4370.276367
-423.500000	-1650.000000	1389.481445	4312.524902
-423.500000	-1650.000000	1388.424805	4363.653320
-423.500000	-1650.000000	1387.368164	4431.320313
-423.500000	-1650.000000	1386.311523	4385.419434
-423.500000	-1650.000000	1385.253906	4320.619141
-423.500000	-1650.000000	1384.197266	4397.707520
-423.500000	-1650.000000	1383.139648	4306.929199
-423.500000	-1650.000000	1382.081055	4554.146973
-423.500000	-1650.000000	1381.023438	4487.001465
-423.500000	-1650.000000	1379.964844	4438.783203
-423.500000	-1650.000000	1378.906250	4513.399414
-423.500000	-1650.000000	1377.847656	4351.853516
-423.500000	-1650.000000	1376.789063	4485.474609
-423.500000	-1650.000000	1375.729492	4434.936523
-423.500000	-1650.000000	1374.669922	4301.828613
-423.500000	-1650.000000	1373.610352	4279.662598
-423.500000	-1650.000000	1372.550781	4299.962402
-423.500000	-1650.000000	1371.490234	4336.760742
-423.500000	-1650.000000	1370.429688	4222.649902
-423.500000	-1650.000000	1369.369141	4325.449707
-423.500000	-1650.000000	1368.308594	4237.313477
-423.500000	-1650.000000	1367.248047	4219.899902
-423.500000	-1650.000000	1366.186523	4266.096191
-423.500000	-1650.000000	1365.125000	4319.337891
-423.500000	-1650.000000	1364.063477	4294.852539
-423.500000	-1650.000000	1363.000977	4289.210938
-423.500000	-1650.000000	1361.939453	4175.305176
-423.500000	-1650.000000	1360.876953	4202.634277
-423.500000	-1650.000000	1359.813477	4284.060547
-423.500000	-1650.000000	1358.750977	4210.214355
-423.500000	-1650.000000	1357.687500	4378.610352
-423.500000	-1650.000000	1356.625000	4184.871094
-423.500000	-1650.000000	1355.560547	4315.590332
-423.500000	-1650.000000	1354.497070	4136.048340
-423.500000	-1650.000000	1353.432617	4205.632813
-423.500000	-1650.000000	1352.369141	4200.018555
-423.500000	-1650.000000	1351.304688	4304.785645
-423.500000	-1650.000000	1350.239258	4299.151367
-423.500000	-1650.000000	1349.174805	4237.179688
-423.500000	-1650.000000	1348.109375	4294.929688
-423.500000	-1650.000000	1347.043945	4286.953125
-423.500000	-1650.000000	1345.978516	4440.849609
-423.500000	-1650.000000	1344.912109	4315.573242
-423.500000	-1650.000000	1343.846680	4338.080078
-423.500000	-1650.000000	1342.780273	4435.597656
-423.500000	-1650.000000	1341.712891	4439.316895
-423.500000	-1650.000000	1340.646484	4518.021484
-423.500000	-1650.000000	1339.579102	4411.605957
-423.500000	-1650.000000	1338.511719	4412.983887
-423.500000	-1650.000000	1337.444336	4372.208008
-423.500000	-1650.000000	1336.376953	4436.809082
-423.500000	-1650.000000	1335.308594	4494.358887
-423.500000	-1650.000000	1334.240234	4474.653320
-423.500000	-1650.000000	1333.171875	4457.295898
-423.500000	-1650.000000	1332.103516	4409.534668
-423.500000	-1650.000000	1331.034180	4453.005859
-423.500000	-1650.000000	1329.964844	4466.060059
-423.500000	-1650.000000	1328.895508	4320.142090
-423.500000	-1650.000000	1327.826172	4529.545898
-423.500000	-1650.000000	1326.755859	4350.962891
-423.500000	-1650.000000	1325.686523	4429.439941
-423.500000	-1650.000000	1324.616211	4430.804199
-423.500000	-1650.000000	1323.544922	4415.821777
-423.500000	-1650.000000	1322.474609	4356.486328
-423.500000	-1650.000000	1321.403320	4369.535156
-423.500000	-1650.000000	1320.332031	4487.591797
-423.500000	-1650.000000	1319.260742	4493.605957
-423.500000	-1650.000000	1318.188477	4590.588867
-423.500000	-1650.000000	1317.117188	4526.613770
-423.500000	-1650.000000	1316.044922	4553.598145
-423.500000	-1650.000000	1314.971680	4459.354004
-423.500000	-1650.000000	1313.899414	4556.257813
-423.500000	-1650.000000	1312.826172	4559.916016
-423.500000	-1650.000000	1311.752930	4509.992676
-423.500000	-1650.000000	1310.679688	4418.167969
-423.500000	-1650.000000	1309.606445	4563.892090
-423.500000	-1650.000000	1308.532227	4469.767578
-423.500000	-1650.000000	1307.458008	4533.953125
-423.500000	-1650.000000	1306.383789	4467.798828
-423.500000	-1650.000000	1305.309570	4578.484863
-423.500000	-1650.000000	1304.234375	4598.409668
-423.500000	-1650.000000	1303.159180	4564.839844
-423.500000	-1650.000000	1302.083984	4619.631348
-423.500000	-1650.000000	1301.008789	4474.498535
-423.500000	-1650.000000	1299.932617	4601.326172
-423.500000	-1650.000000	1298.856445	4637.484863
-423.500000	-1650.000000	1297.780273	4648.075684
-423.500000	-1650.000000	1296.704102	4614.536133
-423.500000	-1650.000000	1295.626953	4666.919434
-423.500000	-1650.000000	1294.549805	4531.250977
-423.500000	-1650.000000	1293.472656	4650.932617
-423.500000	-1650.000000	1292.395508	4670.787109
-423.500000	-1650.000000	1291.318359	4781.104492
-423.500000	-1650.000000	1290.240234	4715.106934
-423.500000	-1650.000000	1289.162109	4707.107422
-423.500000	-1650.000000	1288.083008	4706.065918
-423.500000	-1650.000000	1287.004883	4658.668945
-423.500000	-1650.000000	1285.925781	4717.885742
-423.500000	-1650.000000	1284.846680	4848.893555
-423.500000	-1650.000000	1283.767578	4815.392578
-423.500000	-1650.000000	1282.687500	4763.379883
-423.500000	-1650.000000	1281.608398	4829.463867
-423.500000	-1650.000000	1280.528320	4934.867676
-423.500000	-1650.000000	1279.447266	4989.312500
-423.500000	-1650.000000	1278.367188	4884.091797
-423.500000	-1650.000000	1277.286133	4940.835938
-423.500000	-1650.000000	1276.205078	4932.801270
-423.500000	-1650.000000	1275.124023	5040.374023
-423.500000	-1650.000000	1274.042969	4983.776367
-423.500000	-1650.000000	1272.960938	5001.157715
-423.500000	-1650.000000	1271.878906	5048.567383
-423.500000	-1650.000000	1270.796875	5054.375000
-423.500000	-1650.000000	1269.713867	5147.941406
-423.500000	-1650.000000	1268.631836	5135.250977
-423.500000	-1650.000000	1267.548828	5182.586914
-423.500000	-1650.000000	1266.464844	4978.330078
-423.500000	-1650.000000	1265.381836	5081.057617
-423.500000	-1650.000000	1264.297852	4902.290039
-423.500000	-1650.000000	1263.213867	4866.601074
-423.500000	-1650.000000	1262.129883	5052.296875
-423.500000	-1650.000000	1261.045898	4912.845215
-423.500000	-1650.000000	1259.960938	5093.836914
-423.500000	-1650.000000	1258.875977	5000.524902
-423.500000	-1650.000000	1257.791016	4990.193359
-423.500000	-1650.000000	1256.706055	5076.606934
-423.500000	-1650.000000	1255.620117	5093.895996
-423.500000	-1650.000000	1254.534180	4936.199707
-423.500000	-1650.000000	1253.448242	5199.805664
-423.500000	-1650.000000	1252.361328	4989.224609
-423.500000	-1650.000000	1251.275391	5144.562500
-423.500000	-1650.000000	1250.188477	5131.910645
-423.500000	-1650.000000	1249.101563	5160.659180
-423.500000	-1650.000000	1248.013672	5196.292480
-423.500000	-1650.000000	1246.926758	5247.999512
-423.500000	-1650.000000	1245.838867	5193.965332
-423.500000	-1650.000000	1244.750977	5128.466309
-423.500000	-1650.000000	1243.662109	5131.911621
-423.500000	-1650.000000	1242.573242	5098.607422
-423.500000	-1650.000000	1241.485352	5097.464355
-423.500000	-1650.000000	1240.395508	5238.650391
-423.500000	-1650.000000	1239.306641	5150.260254
-423.500000	-1650.000000	1238.216797	5032.079102
-423.500000	-1650.000000	1237.126953	5003.420410
-423.500000	-1650.000000	1236.037109	5119.269043
-423.500000	-1650.000000	1234.947266	5106.653320
-423.500000	-1650.000000	1233.856445	4961.075195
-423.500000	-1650.000000	1232.765625	4955.375977
-423.500000	-1650.000000	1231.674805	5066.545898
-423.500000	-1650.000000	1230.583984	5072.278809
-423.500000	-1650.000000	1229.492188	5027.618164
-423.500000	-1650.000000	1228.400391	4989.846680
-423.500000	-1650.000000	1227.308594	4924.618164
-423.500000	-1650.000000	1226.216797	4797.617188
-423.500000	-1650.000000	1225.124023	4748.479004
-423.500000	-1650.000000	1224.031250	4822.909668
-423.500000	-1650.000000	1222.938477	4798.948242
-423.500000	-1650.000000	1221.844727	4919.070313
-423.500000	-1650.000000	1220.751953	4709.901367
-423.500000	-1650.000000	1219.658203	4669.979004
-423.500000	-1650.000000	1218.564453	4705.489746
-423.500000	-1650.000000	1217.469727	4772.971191
-423.500000	-1650.000000	1216.375000	4707.932129
-423.500000	-1650.000000	1215.280273	4745.692383
-423.500000	-1650.000000	1214.185547	4625.889648
-423.500000	-1650.000000	1213.090820	4738.980469
-423.500000	-1650.000000	1211.995117	4751.601563
-423.500000	-1650.000000	1210.899414	4937.626465
-423.500000	-1650.000000	1209.803711	4717.513672
-423.500000	-1650.000000	1208.707031	4780.304199
-423.500000	-1650.000000	1207.611328	4770.100586
-423.500000	-1650.000000	1206.514648	4912.636719
-423.500000	-1650.000000	1205.416992	4772.496094
-423.500000	-1650.000000	1204.320313	4885.344238
-423.500000	-1650.000000	1203.222656	4765.774902
-423.500000	-1650.000000	1202.125000	4723.696777
-423.500000	-1650.000000	1201.027344	4720.347168
-423.500000	-1650.000000	1199.928711	4757.976074
-423.500000	-1650.000000	1198.831055	4802.415527
-423.500000	-1650.000000	1197.732422	4887.792969
-423.500000	-1650.000000	1196.632813	4768.382324
-423.500000	-1650.000000	1195.534180	4774.121094
-423.500000	-1650.000000	1194.434570	4736.651367
-423.500000	-1650.000000	1193.334961	4781.041992
-423.500000	-1650.000000	1192.235352	4882.234863
-423.500000	-1650.000000	1191.134766	4803.860840
-423.500000	-1650.000000	1190.034180	4748.241211
-423.500000	-1650.000000	1188.933594	4722.173828
-423.500000	-1650.000000	1187.833008	4764.242676
-423.500000	-1650.000000	1186.731445	4799.481445
-423.500000	-1650.000000	1185.630859	4961.812988
-423.500000	-1650.000000	1184.528320	4935.717773
-423.500000	-1650.000000	1183.426758	4873.333496
-423.500000	-1650.000000	1182.324219	4806.440918
-423.500000	-1650.000000	1181.222656	4871.106934
-423.500000	-1650.000000	1180.119141	4904.001465
-423.500000	-1650.000000	1179.016602	4955.014160
-423.500000	-1650.000000	1177.913086	4854.168457
-423.500000	-1650.000000	1176.809570	4921.027344
-423.500000	-1650.000000	1175.706055	4974.264160
-423.500000	-1650.000000	1174.602539	4862.158203
-423.500000	-1650.000000	1173.498047	4874.628906
-423.500000	-1650.000000	1172.393555	4871.248047
-423.500000	-1650.000000	1171.289063	4793.186523
-423.500000	-1650.000000	1170.184570	4857.701172
-423.500000	-1650.000000	1169.079102	4895.041016
-423.500000	-1650.000000	1167.973633	4839.641113
-423.500000	-1650.000000	1166.868164	4926.708496
-423.500000	-1650.000000	1165.761719	4988.870117
-423.500000	-1650.000000	1164.655273	4915.404785
-423.500000	-1650.000000	1163.548828	4934.609863
-423.500000	-1650.000000	1162.442383	4944.769531
-423.500000	-1650.000000	1161.334961	4968.474121
-423.500000	-1650.000000	1160.228516	5141.187500
-423.500000	-1650.000000	1159.121094	4864.605957
-423.500000	-1650.000000	1158.012695	5023.721191
-423.500000	-1650.000000	1156.905273	4905.234863
-423.500000	-1650.000000	1155.796875	4843.197754
-423.500000	-1650.000000	1154.688477	4884.931152
-423.500000	-1650.000000	1153.579102	4931.154297
-423.500000	-1650.000000	1152.470703	4914.236328
-423.500000	-1650.000000	1151.361328	4996.489746
-423.500000	-1650.000000	1150.251953	4896.194824
-423.500000	-1650.000000	1149.141602	4820.725586
-423.500000	-1650.000000	1148.032227	4887.175781
-423.500000	-1650.000000	1146.921875	4980.614746
-423.500000	-1650.000000	1145.810547	4884.915527
-423.500000	-1650.000000	1144.700195	4926.546387
-423.500000	-1650.000000	1143.588867	4866.904297
-423.500000	-1650.000000	1142.477539	5025.495117
-423.500000	-1650.000000	1141.366211	4844.408691
-423.500000	-1650.000000	1140.253906	4850.031738
-423.500000	-1650.000000	1139.142578	4866.891113
-423.500000	-1650.000000	1138.029297	4910.711426
-423.500000	-1650.000000	1136.916992	4887.102539
-423.500000	-1650.000000	1135.804688	4964.592773
-423.500000	-1650.000000	1134.691406	4949.964844
-423.500000	-1650.000000	1133.578125	4980.250000
-423.500000	-1650.000000	1132.463867	4920.726563
-423.500000	-1650.000000	1131.350586	4921.826660
-423.500000	-1650.000000	1130.236328	5104.674805
-423.500000	-1650.000000	1129.121094	5103.486816
-423.500000	-1650.000000	1128.006836	5068.657227
-423.500000	-1650.000000	1126.891602	5116.806641
-423.500000	-1650.000000	1125.776367	5187.349609
-423.500000	-1650.000000	1124.661133	5083.045410
-423.500000	-1650.000000	1123.545898	5097.545410
-423.500000	-1650.000000	1122.429688	4993.309082
-423.500000	-1650.000000	1121.313477	4920.475586
-423.500000	-1650.000000	1120.196289	5172.346680
-423.500000	-1650.000000	1119.080078	5079.356934
-423.500000	-1650.000000	1117.962891	5174.407227
-423.500000	-1650.000000	1116.845703	5092.645996
-423.500000	-1650.000000	1115.727539	5075.796387
-423.500000	-1650.000000	1114.610352	5202.089355
-423.500000	-1650.000000	1113.492188	5104.725586
-423.500000	-1650.000000	1112.374023	5322.604492
-423.500000	-1650.000000	1111.254883	5238.665527
-423.500000	-1650.000000	1110.136719	5217.328613
-423.500000	-1650.000000	1109.017578	5305.460938
-423.500000	-1650.000000	1107.897461	5339.950684
-423.500000	-1650.000000	1106.778320	5423.545898
-423.500000	-1650.000000	1105.658203	5437.899414
-423.500000	-1650.000000	1104.538086	5365.205566
-423.500000	-1650.000000	1103.417969	5341.632813
-423.500000	-1650.000000	1102.296875	5492.067871
-423.500000	-1650.000000	1101.175781	5566.604004
-423.500000	-1650.000000	1100.054688	5500.634277
-423.500000	-1650.000000	1098.933594	5543.923340
-423.500000	-1650.000000	1097.811523	5502.503418
-423.500000	-1650.000000	1096.689453	5519.032715
-423.500000	-1650.000000	1095.567383	5666.980957
-423.500000	-1650.000000	1094.444336	5734.684570
-423.500000	-1650.000000	1093.321289	5561.889160
-423.500000	-1650.000000	1092.198242	5651.844238
-423.500000	-1650.000000	1091.075195	5715.049805
-423.500000	-1650.000000	1089.952148	5802.699219
-423.500000	-1650.000000	1088.828125	5921.448730
-423.500000	-1650.000000	1087.704102	5933.393066
-423.500000	-1650.000000	1086.579102	5916.427246
-423.500000	-1650.000000	1085.454102	5946.148438
-423.500000	-1650.000000	1084.330078	6113.639648
-423.500000	-1650.000000	1083.204102	6258.832031
-423.500000	-1650.000000	1082.079102	6315.103516
-423.500000	-1650.000000	1080.953125	6517.917480
-423.500000	-1650.000000	1079.827148	6516.373047
-423.500000	-1650.000000	1078.701172	6561.442383
-423.500000	-1650.000000	1077.574219	6533.256348
-423.500000	-1650.000000	1076.447266	6791.288574
-423.500000	-1650.000000	1075.320313	6785.240234
-423.500000	-1650.000000	1074.193359	6927.772949
-423.500000	-1650.000000	1073.065430	7028.112793
-423.500000	-1650.000000	1071.937500	6935.563965
-423.500000	-1650.000000	1070.809570	6916.187012
-423.500000	-1650.000000	1069.680664	6828.138184
-423.500000	-1650.000000	1068.552734	6846.447754
-423.500000	-1650.000000	1067.423828	6727.453125
-423.500000	-1650.000000	1066.293945	6721.422852
-423.500000	-1650.000000	1065.165039	6713.181641
-423.500000	-1650.000000	1064.035156	6594.300293
-423.500000	-1650.000000	1062.905273	6490.960449
-423.500000	-1650.000000	1061.774414	6407.575684
-423.500000	-1650.000000	1060.643555	6182.708008
-423.500000	-1650.000000	1059.512695	6223.235840
-423.500000	-1650.000000	1058.381836	6060.403809
-423.500000	-1650.000000	1057.250977	6096.520020
-423.500000	-1650.000000	1056.119141	6137.036133
-423.500000	-1650.000000	1054.987305	6022.928223
-423.500000	-1650.000000	1053.854492	5880.168457
-423.500000	-1650.000000	1052.722656	5852.270020
-423.500000	-1650.000000	1051.589844	5837.625977
-423.500000	-1650.000000	1050.457031	5922.281250
-423.500000	-1650.000000	1049.323242	6051.014648
-423.500000	-1650.000000	1048.189453	5932.674316
-423.500000	-1650.000000	1047.055664	5984.168945
-423.500000	-1650.000000	1045.921875	5960.688477
-423.500000	-1650.000000	1044.787109	5983.499512
-423.500000	-1650.000000	1043.653320	6006.298828
-423.500000	-1650.000000	1042.517578	6097.373047
-423.500000	-1650.000000	1041.382813	6054.063477
-423.500000	-1650.000000	1040.247070	5999.765137
-423.500000	-1650.000000	1039.111328	6064.357910
-423.500000	-1650.000000	1037.975586	6007.880371
-423.500000	-1650.000000	1036.838867	6068.037109
-423.500000	-1650.000000	1035.703125	6099.569336
-423.500000	-1650.000000	1034.566406	6241.040039
-423.500000	-1650.000000	1033.428711	6202.158691
-423.500000	-1650.000000	1032.291016	6158.899414
-423.500000	-1650.000000	1031.154297	6185.979980
-423.500000	-1650.000000	1030.015625	6182.288574
-423.500000	-1650.000000	1028.877930	6316.974121
-423.500000	-1650.000000	1027.739258	6390.108398
-423.500000	-1650.000000	1026.600586	6287.575195
-423.500000	-1650.000000	1025.460938	6189.479980
-423.500000	-1650.000000	1024.322266	6343.778320
-423.500000	-1650.000000	1023.182617	6149.188477
-423.500000	-1650.000000	1022.042969	6125.765625
-423.500000	-1650.000000	1020.902344	6192.255371
-423.500000	-1650.000000	1019.761719	6144.717285
-423.500000	-1650.000000	1018.621094	6156.376465
-423.500000	-1650.000000	1017.480469	6183.366699
-423.500000	-1650.000000	1016.338867	6087.668945
-423.500000	-1650.000000	1015.197266	6099.330566
-423.500000	-1650.000000	1014.055664	6012.456055
-423.500000	-1650.000000	1012.914063	5958.457520
-423.500000	-1650.000000	1011.771484	6035.792969
-423.500000	-1650.000000	1010.628906	6027.759766
-423.500000	-1650.000000	1009.486328	6150.973633
-423.500000	-1650.000000	1008.342773	6166.969727
-423.500000	-1650.000000	1007.199219	6191.702637
-423.500000	-1650.000000	1006.055664	6546.478516
-423.500000	-1650.000000	1004.911133	6848.633789
-423.500000	-1650.000000	1003.767578	7111.314941
-423.500000	-1650.000000	1002.623047	7050.604980
-423.500000	-1650.000000	1001.477539	6874.188965
-423.500000	-1650.000000	1000.333008	6787.366211
-423.500000	-1650.000000	999.187500	6473.594238
-423.500000	-1650.000000	998.041992	6391.273926
-423.500000	-1650.000000	996.895508	6234.820801
-423.500000	-1650.000000	995.749023	6159.140137
-423.500000	-1650.000000	994.602539	6295.000000
-423.500000	-1650.000000	993.456055	6151.761719
-423.500000	-1650.000000	992.308594	6115.382813
-423.500000	-1650.000000	991.161133	6220.646484
-423.500000	-1650.000000	990.013672	6236.546387
-423.500000	-1650.000000	988.866211	6226.303711
-423.500000	-1650.000000	987.717773	6192.114746
-423.500000	-1650.000000	986.569336	6133.998047
-423.500000	-1650.000000	985.419922	6295.703613
-423.500000	-1650.000000	984.271484	6300.681641
-423.500000	-1650.000000	983.122070	6357.858398
-423.500000	-1650.000000	981.971680	6517.211426
-423.500000	-1650.000000	980.822266	6513.431641
-423.500000	-1650.000000	979.671875	6572.684570
-423.500000	-1650.000000	978.521484	6671.020020
-423.500000	-1650.000000	977.371094	6993.066895
-423.500000	-1650.000000	976.219727	7188.983398
-423.500000	-1650.000000	975.068359	7512.912109
-423.500000	-1650.000000	973.916992	7953.904297
-423.500000	-1650.000000	972.764648	8429.401367
-423.500000	-1650.000000	971.612305	8856.927734
-423.500000	-1650.000000	970.459961	9570.577148
-423.500000	-1650.000000	969.307617	10385.799805
-423.500000	-1650.000000	968.154297	11209.289063
-423.500000	-1650.000000	967.000977	12589.442383
-423.500000	-1650.000000	965.847656	13585.338867
-423.500000	-1650.000000	964.693359	14563.406250
-423.500000	-1650.000000	963.539063	15640.622070
-423.500000	-1650.000000	962.384766	16600.365234
-423.500000	-1650.000000	961.229492	17100.667969
-423.500000	-1650.000000	960.075195	17260.912109
-423.500000	-1650.000000	958.918945	17111.642578
-423.500000	-1650.000000	957.763672	16878.076172
-423.500000	-1650.000000	956.607422	16008.770508
-423.500000	-1650.000000	955.451172	15176.652344
-423.500000	-1650.000000	954.294922	14001.238281
-423.500000	-1650.000000	953.138672	13338.598633
-423.500000	-1650.000000	951.981445	12525.044922
-423.500000	-1650.000000	950.824219	11768.056641
-423.500000	-1650.000000	949.666016	11004.964844
-423.500000	-1650.000000	948.507813	10596.326172
-423.500000	-1650.000000	947.349609	10051.908203
-423.500000	-1650.000000	946.191406	9514.233398
-423.500000	-1650.000000	945.032227	9108.425781
-423.500000	-1650.000000	943.874023	8847.326172
-423.500000	-1650.000000	942.713867	8321.132813
-423.500000	-1650.000000	941.554688	8222.040039
-423.500000	-1650.000000	940.394531	7982.906738
-423.500000	-1650.000000	939.234375	7814.995605
-423.500000	-1650.000000	938.073242	7416.675293
-423.500000	-1650.000000	936.913086	7352.360352
-423.500000	-1650.000000	935.751953	7031.863281
-423.500000	-1650.000000	934.589844	7030.096680
-423.500000	-1650.000000	933.428711	6873.388672
-423.500000	-1650.000000	932.266602	6923.294922
-423.500000	-1650.000000	931.104492	6747.331543
-423.500000	-1650.000000	929.941406	6687.574219
-423.500000	-1650.000000	928.778320	6642.894043
-423.500000	-1650.000000	927.615234	6544.503906
-423.500000	-1650.000000	926.452148	6545.002930
-423.500000	-1650.000000	925.288086	6474.610840
-423.500000	-1650.000000	924.124023	6425.729492
-423.500000	-1650.000000	922.959961	6449.873047
-423.500000	-1650.000000	921.794922	6334.476563
-423.500000	-1650.000000	920.629883	6412.278809
-423.500000	-1650.000000	919.464844	6123.165039
-423.500000	-1650.000000	918.299805	6134.485840
-423.500000	-1650.000000	917.133789	6182.254395
-423.500000	-1650.000000	915.967773	6307.176270
-423.500000	-1650.000000	914.800781	6262.712402
-423.500000	-1650.000000	913.634766	6149.702637
-423.500000	-1650.000000	912.466797	6158.854492
-423.500000	-1650.000000	911.299805	6146.583496
-423.500000	-1650.000000	910.132813	6044.391113
-423.500000	-1650.000000	908.964844	6079.246094
-423.500000	-1650.000000	907.795898	6086.261719
-423.500000	-1650.000000	906.627930	6110.388672
-423.500000	-1650.000000	905.458984	6023.277344
-423.500000	-1650.000000	904.290039	6053.820801
-423.500000	-1650.000000	903.120117	6011.660645
-423.500000	-1650.000000	901.951172	5967.383301
-423.500000	-1650.000000	900.780273	6051.333496
-423.500000	-1650.000000	899.610352	5904.527344
-423.500000	-1650.000000	898.439453	5928.649414
-423.500000	-1650.000000	897.268555	5969.839355
-423.500000	-1650.000000	896.097656	5938.431152
-423.500000	-1650.000000	894.926758	6007.337402
-423.500000	-1650.000000	893.754883	6029.270996
-423.500000	-1650.000000	892.582031	6117.312988
-423.500000	-1650.000000	891.410156	6134.939941
-423.500000	-1650.000000	890.237305	6195.193848
-423.500000	-1650.000000	889.064453	6076.384766
-423.500000	-1650.000000	887.891602	5925.673828
-423.500000	-1650.000000	886.717773	6049.838379
-423.500000	-1650.000000	885.543945	6099.398926
-423.500000	-1650.000000	884.369141	6095.704590
-423.500000	-1650.000000	883.195313	6089.882324
-423.500000	-1650.000000	882.020508	6171.311523
-423.500000	-1650.000000	880.844727	6201.638184
-423.500000	-1650.000000	879.669922	6185.154785
-423.500000	-1650.000000	878.494141	6192.069336
-423.500000	-1650.000000	877.318359	6247.873535
-423.500000	-1650.000000	876.141602	6157.001953
-423.500000	-1650.000000	874.964844	6146.916504
-423.500000	-1650.000000	873.788086	6217.555176
-423.500000	-1650.000000	872.611328	6105.521484
-423.500000	-1650.000000	871.433594	6006.282715
-423.500000	-1650.000000	870.255859	6183.027344
-423.500000	-1650.000000	869.077148	6175.064453
-423.500000	-1650.000000	867.899414	6120.431641
-423.500000	-1650.000000	866.720703	6197.323242
-423.500000	-1650.000000	865.541016	6127.868164
-423.500000	-1650.000000	864.362305	6102.964355
-423.500000	-1650.000000	863.182617	6215.824219
-423.500000	-1650.000000	862.001953	6182.433105
-423.500000	-1650.000000	860.822266	6178.712402
-423.500000	-1650.000000	859.641602	6251.226563
-423.500000	-1650.000000	858.460938	6243.253418
-423.500000	-1650.000000	857.279297	6347.458496
-423.500000	-1650.000000	856.097656	6377.549316
-423.500000	-1650.000000	854.916016	6255.312500
-423.500000	-1650.000000	853.734375	6253.686035
-423.500000	-1650.000000	852.551758	6207.658203
-423.500000	-1650.000000	851.369141	6261.000488
-423.500000	-1650.000000	850.185547	6246.690918
-423.500000	-1650.000000	849.002930	6264.077148
-423.500000	-1650.000000	847.819336	6177.959473
-423.500000	-1650.000000	846.634766	6220.690918
-423.500000	-1650.000000	845.451172	6206.401367
-423.500000	-1650.000000	844.266602	6246.990234
-423.500000	-1650.000000	843.081055	6308.655762
-423.500000	-1650.000000	841.896484	6319.663086
-423.500000	-1650.000000	840.710938	6301.140137
-423.500000	-1650.000000	839.524414	6253.109863
-423.500000	-1650.000000	838.338867	6287.303711
-423.500000	-1650.000000	837.152344	6308.835938
-423.500000	-1650.000000	835.965820	6163.933594
-423.500000	-1650.000000	834.778320	6292.893066
-423.500000	-1650.000000	833.590820	6141.751465
-423.500000	-1650.000000	832.403320	6298.010742
-423.500000	-1650.000000	831.215820	6275.312988
-423.500000	-1650.000000	830.027344	6046.449219
-423.500000	-1650.000000	828.838867	5988.070801
-423.500000	-1650.000000	827.649414	6112.660156
-423.500000	-1650.000000	826.459961	5919.752930
-423.500000	-1650.000000	825.270508	6054.800293
-423.500000	-1650.000000	824.081055	5809.480469
-423.500000	-1650.000000	822.890625	6011.700195
-423.500000	-1650.000000	821.700195	5913.516602
-423.500000	-1650.000000	820.509766	6023.225586
-423.500000	-1650.000000	819.318359	5912.494629
-423.500000	-1650.000000	818.126953	6045.225098
-423.500000	-1650.000000	816.935547	6003.770020
-423.500000	-1650.000000	815.743164	6155.278320
-423.500000	-1650.000000	814.550781	6151.553711
-423.500000	-1650.000000	813.358398	6365.822754
-423.500000	-1650.000000	812.165039	6232.118652
-423.500000	-1650.000000	810.971680	6257.702148
-423.500000	-1650.000000	809.778320	6113.622559
-423.500000	-1650.000000	808.583984	6051.279297
-423.500000	-1650.000000	807.389648	5997.340332
-423.500000	-1650.000000	806.195313	5939.244141
-423.500000	-1650.000000	805.000000	5862.347168
-423.500000	-1650.000000	803.804688	5806.406250
-423.500000	-1650.000000	802.609375	5727.492188
-423.500000	-1650.000000	801.414063	5721.787109
-423.500000	-1650.000000	800.217773	5638.754883
-423.500000	-1650.000000	799.020508	5720.830078
-423.500000	-1650.000000	797.824219	5698.416992
-423.500000	-1650.000000	796.626953	5636.336914
-423.500000	-1650.000000	795.429688	5716.255859
-423.500000	-1650.000000	794.231445	5562.365234
-423.500000	-1650.000000	793.033203	5817.535645
-423.500000	-1650.000000	791.834961	5669.956055
-423.500000	-1650.000000	790.636719	5680.953613
-423.500000	-1650.000000	789.437500	5696.113770
-423.500000	-1650.000000	788.238281	5688.336426
-423.500000	-1650.000000	787.038086	5834.766602
-423.500000	-1650.000000	785.837891	5720.706055
-423.500000	-1650.000000	784.637695	5873.294434
-423.500000	-1650.000000	783.437500	5825.912109
-423.500000	-1650.000000	782.236328	5666.146484
-423.500000	-1650.000000	781.035156	5708.327148
-423.500000	-1650.000000	779.833008	5573.642578
-423.500000	-1650.000000	778.630859	5796.777832
-423.500000	-1650.000000	777.428711	5816.012695
-423.500000	-1650.000000	776.226563	5797.817871
-423.500000	-1650.000000	775.023438	5677.796387
-423.500000	-1650.000000	773.820313	5651.334961
-423.500000	-1650.000000	772.616211	5656.043945
-423.500000	-1650.000000	771.413086	5841.411133
-423.500000	-1650.000000	770.208984	5628.081543
-423.500000	-1650.000000	769.003906	5545.620117
-423.500000	-1650.000000	767.798828	5654.091797
-423.500000	-1650.000000	766.593750	5758.355469
-423.500000	-1650.000000	765.388672	5694.585938
-423.500000	-1650.000000	764.182617	5755.242188
-423.500000	-1650.000000	762.976563	5778.556641
-423.500000	-1650.000000	761.769531	5710.685059
-423.500000	-1650.000000	760.562500	5841.716309
-423.500000	-1650.000000	759.355469	5879.481445
-423.500000	-1650.000000	758.148438	5703.972656
-423.500000	-1650.000000	756.940430	5805.917480
-423.500000	-1650.000000	755.732422	5651.214355
-423.500000	-1650.000000	754.523438	5804.833496
-423.500000	-1650.000000	753.315430	5790.847168
-423.500000	-1650.000000	752.105469	5677.622070
-423.500000	-1650.000000	750.896484	5686.412598
-423.500000	-1650.000000	749.686523	5697.263672
-423.500000	-1650.000000	748.476563	5693.646484
-423.500000	-1650.000000	747.265625	5801.558105
-423.500000	-1650.000000	746.055664	5657.506348
-423.500000	-1650.000000	744.843750	5674.541016
-423.500000	-1650.000000	743.632813	5769.984375
-423.500000	-1650.000000	742.420898	5704.452637
-423.500000	-1650.000000	741.208984	5702.894043
-423.500000	-1650.000000	739.996094	5752.884277
-423.500000	-1650.000000	738.783203	5722.451172
-423.500000	-1650.000000	737.570313	5698.216309
-423.500000	-1650.000000	736.357422	5781.126953
-423.500000	-1650.000000	735.143555	5625.064941
-423.500000	-1650.000000	733.929688	5701.770996
-423.500000	-1650.000000	732.714844	5788.726074
-423.500000	-1650.000000	731.500000	5601.916504
-423.500000	-1650.000000	730.285156	5781.434082
-423.500000	-1650.000000	729.069336	5804.528320
-423.500000	-1650.000000	727.853516	5858.453613
-423.500000	-1650.000000	726.637695	5710.884277
-423.500000	-1650.000000	725.420898	5758.637207
-423.500000	-1650.000000	724.204102	5900.875488
-423.500000	-1550.000000	1819.619141	2379.667725
-423.500000	-1550.000000	1818.655273	2330.415527
-423.500000	-1550.000000	1817.690430	2366.188965
-423.500000	-1550.000000	1816.725586	2277.574219
-423.500000	-1550.000000	1815.760742	2284.847900
-423.500000	-1550.000000	1814.794922	2281.758301
-423.500000	-1550.000000	1813.830078	2340.815918
-423.500000	-1550.000000	1812.864258	2306.649658
-423.500000	-1550.000000	1811.898438	2365.676025
-423.500000	-1550.000000	1810.931641	2240.949707
-423.500000	-1550.000000	1809.965820	2312.900391
-423.500000	-1550.000000	1808.999023	2361.540527
-423.500000	-1550.000000	1808.032227	2298.961182
-423.500000	-1550.000000	1807.065430	2324.313965
-423.500000	-1550.000000	1806.098633	2336.731689
-423.500000	-1550.000000	1805.130859	2356.896729
-423.500000	-1550.000000	1804.163086	2400.306641
-423.500000	-1550.000000	1803.195313	2410.116455
-423.500000	-1550.000000	1802.227539	2326.947266
-423.500000	-1550.000000	1801.259766	2331.604492
-423.500000	-1550.000000	1800.291016	2434.356934
-423.500000	-1550.000000	1799.322266	2374.465332
-423.500000	-1550.000000	1798.353516	2342.984131
-423.500000	-1550.000000	1797.384766	2437.927490
-423.500000	-1550.000000	1796.415039	2447.714111
-423.500000	-1550.000000	1795.445313	2282.145264
-423.500000	-1550.000000	1794.475586	2387.352539
-423.500000	-1550.000000	1793.505859	2317.239014
-423.500000	-1550.000000	1792.536133	2468.779297
-423.500000	-1550.000000	1791.565430	2367.760986
-423.500000	-1550.000000	1790.594727	2385.278076
-423.500000	-1550.000000	1789.624023	2371.883301
-423.500000	-1550.000000	1788.653320	2458.910645
-423.500000	-1550.000000	1787.681641	2432.634521
-423.500000	-1550.000000	1786.710938	2344.602295
-423.500000	-1550.000000	1785.739258	2346.666504
-423.500000	-1550.000000	1784.767578	2500.510010
-423.500000	-1550.000000	1783.794922	2384.228516
-423.500000	-1550.000000	1782.823242	2427.425537
-423.500000	-1550.000000	1781.850586	2390.907227
-423.500000	-1550.000000	1780.877930	2403.240479
-423.500000	-1550.000000	1779.905273	2482.382080
-423.500000	-1550.000000	1778.931641	2427.891113
-423.500000	-1550.000000	1777.958984	2532.679688
-423.500000	-1550.000000	1776.985352	2485.905518
-423.500000	-1550.000000	1776.011719	2467.394775
-423.500000	-1550.000000	1775.038086	2497.664307
-423.500000	-1550.000000	1774.063477	2466.326660
-423.500000	-1550.000000	1773.088867	2514.544434
-423.500000	-1550.000000	1772.114258	2539.653564
-423.500000	-1550.000000	1771.139648	2474.985596
-423.500000	-1550.000000	1770.165039	2507.784912
-423.500000	-1550.000000	1769.189453	2494.424561
-423.500000	-1550.000000	1768.214844	2463.128174
-423.500000	-1550.000000	1767.239258	2503.596680
-423.500000	-1550.000000	1766.262695	2469.750000
-423.500000	-1550.000000	1765.287109	2520.445068
-423.500000	-1550.000000	1764.310547	2545.509277
-423.500000	-1550.000000	1763.333984	2465.589844
-423.500000	-1550.000000	1762.357422	2536.730957
-423.500000	-1550.000000	1761.380859	2454.288574
-423.500000	-1550.000000	1760.403320	2487.021484
-423.500000	-1550.000000	1759.426758	2473.694580
-423.500000	-1550.000000	1758.449219	2552.445313
-423.500000	-1550.000000	1757.471680	2605.592041
-423.500000	-1550.000000	1756.493164	2479.763672
-423.500000	-1550.000000	1755.515625	2591.688965
-423.500000	-1550.000000	1754.537109	2588.574951
-423.500000	-1550.000000	1753.558594	2552.250000
-423.500000	-1550.000000	1752.580078	2574.688232
-423.500000	-1550.000000	1751.600586	2497.522461
-423.500000	-1550.000000	1750.621094	2517.409912
-423.500000	-1550.000000	1749.641602	2552.604248
-423.500000	-1550.000000	1748.662109	2636.272461
-423.500000	-1550.000000	1747.682617	2661.219971
-423.500000	-1550.000000	1746.702148	2581.567627
-423.500000	-1550.000000	1745.722656	2598.864990
-423.500000	-1550.000000	1744.742188	2565.157715
-423.500000	-1550.000000	1743.761719	2699.719238
-423.500000	-1550.000000	1742.780273	2691.492432
-423.500000	-1550.000000	1741.799805	2632.304688
-423.500000	-1550.000000	1740.818359	2616.452881
-423.500000	-1550.000000	1739.836914	2664.285645
-423.500000	-1550.000000	1738.854492	2684.085693
-423.500000	-1550.000000	1737.873047	2721.699219
-423.500000	-1550.000000	1736.890625	2828.024414
-423.500000	-1550.000000	1735.908203	2636.547363
-423.500000	-1550.000000	1734.925781	2814.087891
-423.500000	-1550.000000	1733.943359	2719.361572
-423.500000	-1550.000000	1732.959961	2751.840576
-423.500000	-1550.000000	1731.976563	2771.591797
-423.500000	-1550.000000	1730.993164	2689.646729
-423.500000	-1550.000000	1730.009766	2884.776855
-423.500000	-1550.000000	1729.026367	2856.205566
-423.500000	-1550.000000	1728.041992	2850.511719
-423.500000	-1550.000000	1727.057617	2890.540771
-423.500000	-1550.000000	1726.073242	2884.841797
-423.500000	-1550.000000	1725.088867	2973.085938
-423.500000	-1550.000000	1724.103516	2957.218262
-423.500000	-1550.000000	1723.119141	2913.440918
-423.500000	-1550.000000	1722.133789	3070.128906
-423.500000	-1550.000000	1721.147461	2889.361572
-423.500000	-1550.000000	1720.162109	3025.697998
-423.500000	-1550.000000	1719.175781	2943.908447
-423.500000	-1550.000000	1718.190430	2887.505127
-423.500000	-1550.000000	1717.204102	3033.892334
-423.500000	-1550.000000	1716.216797	2959.755615
-423.500000	-1550.000000	1715.230469	3030.059814
-423.500000	-1550.000000	1714.243164	2999.015869
-423.500000	-1550.000000	1713.255859	2932.531250
-423.500000	-1550.000000	1712.268555	2964.818115
-423.500000	-1550.000000	1711.281250	3007.216309
-423.500000	-1550.000000	1710.292969	3110.334961
-423.500000	-1550.000000	1709.305664	2970.506348
-423.500000	-1550.000000	1708.317383	3116.593750
-423.500000	-1550.000000	1707.328125	2959.119141
-423.500000	-1550.000000	1706.339844	3044.459717
-423.500000	-1550.000000	1705.350586	3036.224609
-423.500000	-1550.000000	1704.362305	3088.653809
-423.500000	-1550.000000	1703.373047	3103.155762
-423.500000	-1550.000000	1702.382813	3158.074707
-423.500000	-1550.000000	1701.393555	3147.296143
-423.500000	-1550.000000	1700.403320	3096.115967
-423.500000	-1550.000000	1699.413086	3161.100586
-423.500000	-1550.000000	1698.422852	3120.036621
-423.500000	-1550.000000	1697.432617	3275.843506
-423.500000	-1550.000000	1696.441406	3239.818848
-423.500000	-1550.000000	1695.450195	3410.669678
-423.500000	-1550.000000	1694.458984	3314.099854
-423.500000	-1550.000000	1693.467773	3404.170410
-423.500000	-1550.000000	1692.476563	3463.949463
-423.500000	-1550.000000	1691.484375	3390.114746
-423.500000	-1550.000000	1690.492188	3419.631348
-423.500000	-1550.000000	1689.500000	3353.395752
-423.500000	-1550.000000	1688.507813	3523.966797
-423.500000	-1550.000000	1687.514648	3550.917236
-423.500000	-1550.000000	1686.521484	3416.714355
-423.500000	-1550.000000	1685.528320	3665.198975
-423.500000	-1550.000000	1684.535156	3493.277100
-423.500000	-1550.000000	1683.541992	3525.243164
-423.500000	-1550.000000	1682.547852	3703.106201
-423.500000	-1550.000000	1681.553711	3616.801270
-423.500000	-1550.000000	1680.559570	3580.825684
-423.500000	-1550.000000	1679.565430	3688.168213
-423.500000	-1550.000000	1678.571289	3632.084229
-423.500000	-1550.000000	1677.576172	3663.979492
-423.500000	-1550.000000	1676.581055	3663.198975
-423.500000	-1550.000000	1675.585938	3712.657471
-423.500000	-1550.000000	1674.590820	3752.049072
-423.500000	-1550.000000	1673.594727	3741.206543
-423.500000	-1550.000000	1672.598633	3665.099365
-423.500000	-1550.000000	1671.602539	3742.123047
-423.500000	-1550.000000	1670.606445	3836.678467
-423.500000	-1550.000000	1669.610352	3823.317871
-423.500000	-1550.000000	1668.613281	3817.487549
-423.500000	-1550.000000	1667.616211	3764.013916
-423.500000	-1550.000000	1666.619141	3760.705566
-423.500000	-1550.000000	1665.622070	3684.707031
-423.500000	-1550.000000	1664.624023	3713.995850
-423.500000	-1550.000000	1663.625977	3638.039307
-423.500000	-1550.000000	1662.627930	3777.545410
-423.500000	-1550.000000	1661.629883	3824.326660
-423.500000	-1550.000000	1660.631836	3680.788574
-423.500000	-1550.000000	1659.632813	3730.073730
-423.500000	-1550.000000	1658.633789	3684.228516
-423.500000	-1550.000000	1657.634766	3778.533936
-423.500000	-1550.000000	1656.635742	3647.636230
-423.500000	-1550.000000	1655.636719	3646.860596
-423.500000	-1550.000000	1654.636719	3571.062744
-423.500000	-1550.000000	1653.636719	3642.809814
-423.500000	-1550.000000	1652.636719	3707.026855
-423.500000	-1550.000000	1651.636719	3726.232178
-423.500000	-1550.000000	1650.635742	3583.018799
-423.500000	-1550.000000	1649.634766	3812.081055
-423.500000	-1550.000000	1648.633789	3636.441895
-423.500000	-1550.000000	1647.632813	3703.088867
-423.500000	-1550.000000	1646.631836	3694.812256
-423.500000	-1550.000000	1645.629883	3748.938477
-423.500000	-1550.000000	1644.627930	3798.050537
-423.500000	-1550.000000	1643.625977	3961.907227
-423.500000	-1550.000000	1642.624023	3921.155518
-423.500000	-1550.000000	1641.621094	3965.211670
-423.500000	-1550.000000	1640.618164	4044.155273
-423.500000	-1550.000000	1639.615234	4003.411621
-423.500000	-1550.000000	1638.612305	4007.545898
-423.500000	-1550.000000	1637.609375	3961.843750
-423.500000	-1550.000000	1636.605469	3868.827881
-423.500000	-1550.000000	1635.601563	3770.870361
-423.500000	-1550.000000	1634.597656	3777.540039
-423.500000	-1550.000000	1633.593750	3709.518311
-423.500000	-1550.000000	1632.589844	3663.927246
-423.500000	-1550.000000	1631.584961	3561.118652
-423.500000	-1550.000000	1630.580078	3555.386475
-423.500000	-1550.000000	1629.575195	3661.593994
-423.500000	-1550.000000	1628.569336	3504.137695
-423.500000	-1550.000000	1627.564453	3436.260010
-423.500000	-1550.000000	1626.558594	3351.009521
-423.500000	-1550.000000	1625.552734	3372.666748
-423.500000	-1550.000000	1624.546875	3294.920166
-423.500000	-1550.000000	1623.540039	3346.391846
-423.500000	-1550.000000	1622.534180	3407.776611
-423.500000	-1550.000000	1621.527344	3198.458252
-423.500000	-1550.000000	1620.520508	3314.468750
-423.500000	-1550.000000	1619.512695	3269.085449
-423.500000	-1550.000000	1618.505859	3300.653809
-423.500000	-1550.000000	1617.498047	3344.614258
-423.500000	-1550.000000	1616.490234	3331.501465
-423.500000	-1550.000000	1615.482422	3288.632568
-423.500000	-1550.000000	1614.473633	3382.159180
-423.500000	-1550.000000	1613.465820	3331.860352
-423.500000	-1550.000000	1612.457031	3234.490479
-423.500000	-1550.000000	1611.448242	3256.106445
-423.500000	-1550.000000	1610.438477	3275.235596
-423.500000	-1550.000000	1609.429688	3217.570557
-423.500000	-1550.000000	1608.419922	4190.126953
-423.500000	-1550.000000	1607.410156	4345.220215
-423.500000	-1550.000000	1606.400391	3623.961670
-423.500000	-1550.000000	1605.390625	3571.220947
-423.500000	-1550.000000	1604.379883	3592.732422
-423.500000	-1550.000000	1603.369141	3599.391846
-423.500000	-1550.000000	1602.358398	3635.727539
-423.500000	-1550.000000	1601.347656	3471.754395
-423.500000	-1550.000000	1600.335938	3399.323242
-423.500000	-1550.000000	1599.325195	3492.527100
-423.500000	-1550.000000	1598.313477	3469.545654
-423.500000	-1550.000000	1597.300781	3367.512695
-423.500000	-1550.000000	1596.289063	3351.977783
-423.500000	-1550.000000	1595.276367	3326.570557
-423.500000	-1550.000000	1594.264648	3246.854248
-423.500000	-1550.000000	1593.251953	3231.354248
-423.500000	-1550.000000	1592.238281	3307.178223
-423.500000	-1550.000000	1591.225586	3343.489746
-423.500000	-1550.000000	1590.211914	3313.176514
-423.500000	-1550.000000	1589.198242	3250.812012
-423.500000	-1550.000000	1588.184570	3235.326904
-423.500000	-1550.000000	1587.170898	3370.239258
-423.500000	-1550.000000	1586.156250	3246.279297
-423.500000	-1550.000000	1585.141602	3267.770264
-423.500000	-1550.000000	1584.126953	3249.830322
-423.500000	-1550.000000	1583.112305	3172.777588
-423.500000	-1550.000000	1582.097656	3268.154541
-423.500000	-1550.000000	1581.082031	3356.104004
-423.500000	-1550.000000	1580.066406	3234.765381
-423.500000	-1550.000000	1579.050781	3310.378174
-423.500000	-1550.000000	1578.035156	3339.204834
-423.500000	-1550.000000	1577.018555	3306.513916
-423.500000	-1550.000000	1576.001953	3259.078613
-423.500000	-1550.000000	1574.985352	3231.336670
-423.500000	-1550.000000	1573.968750	3299.493164
-423.500000	-1550.000000	1572.952148	3301.251465
-423.500000	-1550.000000	1571.934570	3170.298828
-423.500000	-1550.000000	1570.916992	3393.220215
-423.500000	-1550.000000	1569.899414	3358.108643
-423.500000	-1550.000000	1568.881836	3323.011963
-423.500000	-1550.000000	1567.863281	3256.008301
-423.500000	-1550.000000	1566.844727	3262.682617
-423.500000	-1550.000000	1565.826172	3338.079102
-423.500000	-1550.000000	1564.807617	3337.370850
-423.500000	-1550.000000	1563.789063	3410.265869
-423.500000	-1550.000000	1562.769531	3392.372070
-423.500000	-1550.000000	1561.750000	3345.057129
-423.500000	-1550.000000	1560.730469	3322.280518
-423.500000	-1550.000000	1559.710938	3441.691895
-423.500000	-1550.000000	1558.690430	3264.501953
-423.500000	-1550.000000	1557.669922	3325.067139
-423.500000	-1550.000000	1556.649414	3456.650146
-423.500000	-1550.000000	1555.628906	3394.685059
-423.500000	-1550.000000	1554.608398	3418.452148
-423.500000	-1550.000000	1553.586914	3322.245850
-423.500000	-1550.000000	1552.565430	3321.541016
-423.500000	-1550.000000	1551.543945	3284.128174
-423.500000	-1550.000000	1550.522461	3356.831299
-423.500000	-1550.000000	1549.500000	3334.103516
-423.500000	-1550.000000	1548.477539	3414.101807
-423.500000	-1550.000000	1547.455078	3403.596924
-423.500000	-1550.000000	1546.432617	3385.762207
-423.500000	-1550.000000	1545.410156	3446.145508
-423.500000	-1550.000000	1544.386719	3442.970459
-423.500000	-1550.000000	1543.363281	3256.568604
-423.500000	-1550.000000	1542.339844	3387.773438
-423.500000	-1550.000000	1541.316406	3438.336182
-423.500000	-1550.000000	1540.291992	3369.244629
-423.500000	-1550.000000	1539.268555	3368.529297
-423.500000	-1550.000000	1538.244141	3375.135498
-423.500000	-1550.000000	1537.218750	3389.058350
-423.500000	-1550.000000	1536.194336	3239.534668
-423.500000	-1550.000000	1535.168945	3297.380127
-423.500000	-1550.000000	1534.143555	3411.283447
-423.500000	-1550.000000	1533.118164	3361.801758
-423.500000	-1550.000000	1532.092773	3358.650391
-423.500000	-1550.000000	1531.066406	3370.121094
-423.500000	-1550.000000	1530.041016	3447.366699
-423.500000	-1550.000000	1529.014648	3329.716797
-423.500000	-1550.000000	1527.987305	3316.833008
-423.500000	-1550.000000	1526.960938	3330.736816
-423.500000	-1550.000000	1525.933594	3303.252686
-423.500000	-1550.000000	1524.906250	3421.802734
-423.500000	-1550.000000	1523.878906	3299.415771
-423.500000	-1550.000000	1522.851563	3466.569336
-423.500000	-1550.000000	1521.823242	3531.500977
-423.500000	-1550.000000	1520.795898	3394.578369
-423.500000	-1550.000000	1519.767578	3461.928467
-423.500000	-1550.000000	1518.738281	3453.900635
-423.500000	-1550.000000	1517.709961	3443.445801
-423.500000	-1550.000000	1516.680664	3435.425049
-423.500000	-1550.000000	1515.651367	3381.255127
-423.500000	-1550.000000	1514.622070	3470.392334
-423.500000	-1550.000000	1513.592773	3496.362793
-423.500000	-1550.000000	1512.562500	3413.083740
-423.500000	-1550.000000	1511.532227	3582.247559
-423.500000	-1550.000000	1510.501953	3498.985352
-423.500000	-1550.000000	1509.471680	3415.758057
-423.500000	-1550.000000	1508.441406	3432.009521
-423.500000	-1550.000000	1507.410156	3370.656006
-423.500000	-1550.000000	1506.378906	3515.403809
-423.500000	-1550.000000	1505.347656	3536.470947
-423.500000	-1550.000000	1504.316406	3555.105469
-423.500000	-1550.000000	1503.284180	3440.473877
-423.500000	-1550.000000	1502.251953	3357.381592
-423.500000	-1550.000000	1501.219727	3489.867920
-423.500000	-1550.000000	1500.187500	3581.135254
-423.500000	-1550.000000	1499.154297	3493.223633
-423.500000	-1550.000000	1498.122070	3519.103027
-423.500000	-1550.000000	1497.088867	3494.156006
-423.500000	-1550.000000	1496.054688	3575.666748
-423.500000	-1550.000000	1495.021484	3528.948975
-423.500000	-1550.000000	1493.987305	3523.360840
-423.500000	-1550.000000	1492.954102	3554.040527
-423.500000	-1550.000000	1491.918945	3599.209961
-423.500000	-1550.000000	1490.884766	3663.693604
-423.500000	-1550.000000	1489.850586	3677.409912
-423.500000	-1550.000000	1488.815430	3584.831299
-423.500000	-1550.000000	1487.780273	3642.030518
-423.500000	-1550.000000	1486.745117	3660.571289
-423.500000	-1550.000000	1485.708984	3662.205078
-423.500000	-1550.000000	1484.673828	3753.140869
-423.500000	-1550.000000	1483.637695	3689.600342
-423.500000	-1550.000000	1482.601563	3761.190674
-423.500000	-1550.000000	1481.564453	3811.041504
-423.500000	-1550.000000	1480.528320	3887.397705
-423.500000	-1550.000000	1479.491211	3847.992188
-423.500000	-1550.000000	1478.454102	3827.886963
-423.500000	-1550.000000	1477.416992	3894.550049
-423.500000	-1550.000000	1476.378906	3966.003418
-423.500000	-1550.000000	1475.341797	3933.840332
-423.500000	-1550.000000	1474.303711	3920.958496
-423.500000	-1550.000000	1473.264648	3977.911865
-423.500000	-1550.000000	1472.226563	4092.618896
-423.500000	-1550.000000	1471.187500	4077.303711
-423.500000	-1550.000000	1470.149414	4167.875977
-423.500000	-1550.000000	1469.110352	4123.680176
-423.500000	-1550.000000	1468.070313	4216.608398
-423.500000	-1550.000000	1467.031250	4292.663086
-423.500000	-1550.000000	1465.991211	4289.341309
-423.500000	-1550.000000	1464.951172	4377.366211
-423.500000	-1550.000000	1463.911133	4378.834473
-423.500000	-1550.000000	1462.870117	4519.663574
-423.500000	-1550.000000	1461.830078	4415.398926
-423.500000	-1550.000000	1460.789063	4479.302734
-423.500000	-1550.000000	1459.748047	4675.248047
-423.500000	-1550.000000	1458.706055	4527.803223
-423.500000	-1550.000000	1457.665039	4606.041992
-423.500000	-1550.000000	1456.623047	4657.850586
-423.500000	-1550.000000	1455.581055	4673.648438
-423.500000	-1550.000000	1454.539063	4655.857910
-423.500000	-1550.000000	1453.496094	4635.676270
-423.500000	-1550.000000	1452.454102	4665.853516
-423.500000	-1550.000000	1451.411133	4770.329590
-423.500000	-1550.000000	1450.368164	4656.666016
-423.500000	-1550.000000	1449.324219	4744.325684
-423.500000	-1550.000000	1448.281250	4743.309570
-423.500000	-1550.000000	1447.237305	4545.895508
-423.500000	-1550.000000	1446.193359	4683.808105
-423.500000	-1550.000000	1445.148438	4711.533203
-423.500000	-1550.000000	1444.104492	4578.877930
-423.500000	-1550.000000	1443.059570	4570.717773
-423.500000	-1550.000000	1442.014648	4521.887207
-423.500000	-1550.000000	1440.969727	4566.366211
-423.500000	-1550.000000	1439.923828	4438.637207
-423.500000	-1550.000000	1438.878906	4442.467773
-423.500000	-1550.000000	1437.833008	4259.838379
-423.500000	-1550.000000	1436.787109	4239.804688
-423.500000	-1550.000000	1435.740234	4360.757324
-423.500000	-1550.000000	1434.694336	4304.875977
-423.500000	-1550.000000	1433.647461	4253.794922
-423.500000	-1550.000000	1432.600586	4281.537109
-423.500000	-1550.000000	1431.552734	4263.906250
-423.500000	-1550.000000	1430.505859	4236.734863
-423.500000	-1550.000000	1429.458008	4271.620605
-423.500000	-1550.000000	1428.410156	4237.301270
-423.500000	-1550.000000	1427.362305	4334.190430
-423.500000	-1550.000000	1426.313477	4299.871582
-423.500000	-1550.000000	1425.265625	4320.406738
-423.500000	-1550.000000	1424.216797	4238.428223
-423.500000	-1550.000000	1423.167969	4227.983887
-423.500000	-1550.000000	1422.118164	4231.840820
-423.500000	-1550.000000	1421.069336	4345.280273
-423.500000	-1550.000000	1420.019531	4122.841309
-423.500000	-1550.000000	1418.969727	4288.642090
-423.500000	-1550.000000	1417.919922	4280.577637
-423.500000	-1550.000000	1416.869141	4243.952637
-423.500000	-1550.000000	1415.818359	4233.520508
-423.500000	-1550.000000	1414.767578	4142.199707
-423.500000	-1550.000000	1413.716797	4122.278320
-423.500000	-1550.000000	1412.666016	4344.939941
-423.500000	-1550.000000	1411.614258	4351.137207
-423.500000	-1550.000000	1410.562500	4426.269043
-423.500000	-1550.000000	1409.510742	4289.846191
-423.500000	-1550.000000	1408.458984	4372.086914
-423.500000	-1550.000000	1407.406250	4456.666992
-423.500000	-1550.000000	1406.353516	4415.329102
-423.500000	-1550.000000	1405.300781	4563.977051
-423.500000	-1550.000000	1404.248047	4411.051270
-423.500000	-1550.000000	1403.194336	4476.560059
-423.500000	-1550.000000	1402.140625	4466.102051
-423.500000	-1550.000000	1401.086914	4427.177734
-423.500000	-1550.000000	1400.033203	4499.755371
-423.500000	-1550.000000	1398.979492	4420.523926
-423.500000	-1550.000000	1397.924805	4303.389648
-423.500000	-1550.000000	1396.870117	4250.309570
-423.500000	-1550.000000	1395.815430	4505.350586
-423.500000	-1550.000000	1394.759766	4340.883301
-423.500000	-1550.000000	1393.705078	4257.031738
-423.500000	-1550.000000	1392.649414	4253.743164
-423.500000	-1550.000000	1391.593750	4283.607422
-423.500000	-1550.000000	1390.537109	4348.969238
-423.500000	-1550.000000	1389.481445	4295.956543
-423.500000	-1550.000000	1388.424805	4330.523926
-423.500000	-1550.000000	1387.368164	4282.269043
-423.500000	-1550.000000	1386.311523	4189.092773
-423.500000	-1550.000000	1385.253906	4370.281250
-423.500000	-1550.000000	1384.197266	4355.148926
-423.500000	-1550.000000	1383.139648	4401.483398
-423.500000	-1550.000000	1382.081055	4433.616699
-423.500000	-1550.000000	1381.023438	4316.878418
-423.500000	-1550.000000	1379.964844	4271.059082
-423.500000	-1550.000000	1378.906250	4411.841797
-423.500000	-1550.000000	1377.847656	4316.434082
-423.500000	-1550.000000	1376.789063	4315.498535
-423.500000	-1550.000000	1375.729492	4184.748535
-423.500000	-1550.000000	1374.669922	4162.603027
-423.500000	-1550.000000	1373.610352	4256.069824
-423.500000	-1550.000000	1372.550781	4264.581543
-423.500000	-1550.000000	1371.490234	4235.357422
-423.500000	-1550.000000	1370.429688	4180.210938
-423.500000	-1550.000000	1369.369141	4221.733398
-423.500000	-1550.000000	1368.308594	4062.918945
-423.500000	-1550.000000	1367.248047	4191.625977
-423.500000	-1550.000000	1366.186523	4108.267090
-423.500000	-1550.000000	1365.125000	4262.814453
-423.500000	-1550.000000	1364.063477	4184.185059
-423.500000	-1550.000000	1363.000977	4115.005859
-423.500000	-1550.000000	1361.939453	4114.111328
-423.500000	-1550.000000	1360.876953	4141.453613
-423.500000	-1550.000000	1359.813477	4135.847656
-423.500000	-1550.000000	1358.750977	4123.187500
-423.500000	-1550.000000	1357.687500	4126.993164
-423.500000	-1550.000000	1356.625000	4144.903320
-423.500000	-1550.000000	1355.560547	4233.321289
-423.500000	-1550.000000	1354.497070	4178.348633
-423.500000	-1550.000000	1353.432617	4304.312500
-423.500000	-1550.000000	1352.369141	4171.830566
-423.500000	-1550.000000	1351.304688	4161.527344
-423.500000	-1550.000000	1350.239258	4181.751953
-423.500000	-1550.000000	1349.174805	4211.357422
-423.500000	-1550.000000	1348.109375	4292.582520
-423.500000	-1550.000000	1347.043945	4272.874512
-423.500000	-1550.000000	1345.978516	4199.218750
-423.500000	-1550.000000	1344.912109	4310.882324
-423.500000	-1550.000000	1343.846680	4225.524414
-423.500000	-1550.000000	1342.780273	4257.423340
-423.500000	-1550.000000	1341.712891	4265.869141
-423.500000	-1550.000000	1340.646484	4257.907227
-423.500000	-1550.000000	1339.579102	4376.462891
-423.500000	-1550.000000	1338.511719	4319.290039
-423.500000	-1550.000000	1337.444336	4283.218262
-423.500000	-1550.000000	1336.376953	4305.694824
-423.500000	-1550.000000	1335.308594	4407.749023
-423.500000	-1550.000000	1334.240234	4303.811523
-423.500000	-1550.000000	1333.171875	4405.820313
-423.500000	-1550.000000	1332.103516	4299.588867
-423.500000	-1550.000000	1331.034180	4324.373535
-423.500000	-1550.000000	1329.964844	4388.897949
-423.500000	-1550.000000	1328.895508	4338.843750
-423.500000	-1550.000000	1327.826172	4426.708008
-423.500000	-1550.000000	1326.755859	4444.431641
-423.500000	-1550.000000	1325.686523	4380.379883
-423.500000	-1550.000000	1324.616211	4346.719727
-423.500000	-1550.000000	1323.544922	4338.760742
-423.500000	-1550.000000	1322.474609	4440.534180
-423.500000	-1550.000000	1321.403320	4271.500488
-423.500000	-1550.000000	1320.332031	4340.572266
-423.500000	-1550.000000	1319.260742	4400.280762
-423.500000	-1550.000000	1318.188477	4368.990234
-423.500000	-1550.000000	1317.117188	4407.676270
-423.500000	-1550.000000	1316.044922	4376.397461
-423.500000	-1550.000000	1314.971680	4398.746094
-423.500000	-1550.000000	1313.899414	4493.332520
-423.500000	-1550.000000	1312.826172	4436.422852
-423.500000	-1550.000000	1311.752930	4430.788086
-423.500000	-1550.000000	1310.679688	4543.935547
-423.500000	-1550.000000	1309.606445	4424.181152
-423.500000	-1550.000000	1308.532227	4544.263672
-423.500000	-1550.000000	1307.458008	4405.940918
-423.500000	-1550.000000	1306.383789	4414.278320
-423.500000	-1550.000000	1305.309570	4497.058594
-423.500000	-1550.000000	1304.234375	4377.443848
-423.500000	-1550.000000	1303.159180	4467.170898
-423.500000	-1550.000000	1302.083984	4498.734863
-423.500000	-1550.000000	1301.008789	4367.575684
-423.500000	-1550.000000	1299.932617	4436.329102
-423.500000	-1550.000000	1298.856445	4400.499023
-423.500000	-1550.000000	1297.780273	4411.142090
-423.500000	-1550.000000	1296.704102	4521.641602
-423.500000	-1550.000000	1295.626953	4485.815430
-423.500000	-1550.000000	1294.549805	4415.184082
-423.500000	-1550.000000	1293.472656	4572.024414
-423.500000	-1550.000000	1292.395508	4603.498047
-423.500000	-1550.000000	1291.318359	4558.403809
-423.500000	-1550.000000	1290.240234	4631.612793
-423.500000	-1550.000000	1289.162109	4547.112305
-423.500000	-1550.000000	1288.083008	4594.789551
-423.500000	-1550.000000	1287.004883	4614.631836
-423.500000	-1550.000000	1285.925781	4581.168945
-423.500000	-1550.000000	1284.846680	4839.626465
-423.500000	-1550.000000	1283.767578	4817.708496
-423.500000	-1550.000000	1282.687500	4705.487305
-423.500000	-1550.000000	1281.608398	4623.413086
-423.500000	-1550.000000	1280.528320	4735.806641
-423.500000	-1550.000000	1279.447266	4792.609863
-423.500000	-1550.000000	1278.367188	4877.150879
-423.500000	-1550.000000	1277.286133	4792.795898
-423.500000	-1550.000000	1276.205078	4893.486816
-423.500000	-1550.000000	1275.124023	4913.208984
-423.500000	-1550.000000	1274.042969	4752.618164
-423.500000	-1550.000000	1272.960938	4911.025879
-423.500000	-1550.000000	1271.878906	4953.834473
-423.500000	-1550.000000	1270.796875	4791.030273
-423.500000	-1550.000000	1269.713867	4907.750488
-423.500000	-1550.000000	1268.631836	4876.641113
-423.500000	-1550.000000	1267.548828	4797.066895
-423.500000	-1550.000000	1266.464844	4943.710449
-423.500000	-1550.000000	1265.381836	4940.301758
-423.500000	-1550.000000	1264.297852	4835.388184
-423.500000	-1550.000000	1263.213867	4921.955566
-423.500000	-1550.000000	1262.129883	4805.562012
-423.500000	-1550.000000	1261.045898	4769.909180
-423.500000	-1550.000000	1259.960938	4764.235352
-423.500000	-1550.000000	1258.875977	4876.087891
-423.500000	-1550.000000	1257.791016	4888.822754
-423.500000	-1550.000000	1256.706055	4936.102051
-423.500000	-1550.000000	1255.620117	4819.857422
-423.500000	-1550.000000	1254.534180	4926.990234
-423.500000	-1550.000000	1253.448242	4891.361816
-423.500000	-1550.000000	1252.361328	4915.583008
-423.500000	-1550.000000	1251.275391	4985.808105
-423.500000	-1550.000000	1250.188477	5049.101074
-423.500000	-1550.000000	1249.101563	5038.771973
-423.500000	-1550.000000	1248.013672	5033.045898
-423.500000	-1550.000000	1246.926758	4958.359863
-423.500000	-1550.000000	1245.838867	5249.122559
-423.500000	-1550.000000	1244.750977	5073.321289
-423.500000	-1550.000000	1243.662109	5083.670410
-423.500000	-1550.000000	1242.573242	5146.837891
-423.500000	-1550.000000	1241.485352	5212.271973
-423.500000	-1550.000000	1240.395508	5054.999512
-423.500000	-1550.000000	1239.306641	5083.701660
-423.500000	-1550.000000	1238.216797	4910.464844
-423.500000	-1550.000000	1237.126953	4842.833496
-423.500000	-1550.000000	1236.037109	4862.388184
-423.500000	-1550.000000	1234.947266	4872.761230
-423.500000	-1550.000000	1233.856445	4906.054199
-423.500000	-1550.000000	1232.765625	4859.110352
-423.500000	-1550.000000	1231.674805	4864.892090
-423.500000	-1550.000000	1230.583984	4779.030762
-423.500000	-1550.000000	1229.492188	4899.351074
-423.500000	-1550.000000	1228.400391	4779.169434
-423.500000	-1550.000000	1227.308594	4787.250977
-423.500000	-1550.000000	1226.216797	4788.461426
-423.500000	-1550.000000	1225.124023	4725.594727
-423.500000	-1550.000000	1224.031250	4669.620117
-423.500000	-1550.000000	1222.938477	4647.980469
-423.500000	-1550.000000	1221.844727	4662.939941
-423.500000	-1550.000000	1220.751953	4703.042480
-423.500000	-1550.000000	1219.658203	4669.979004
-423.500000	-1550.000000	1218.564453	4577.511230
-423.500000	-1550.000000	1217.469727	4528.496094
-423.500000	-1550.000000	1216.375000	4584.580566
-423.500000	-1550.000000	1215.280273	4492.192871
-423.500000	-1550.000000	1214.185547	4619.040039
-423.500000	-1550.000000	1213.090820	4624.843262
-423.500000	-1550.000000	1211.995117	4715.085938
-423.500000	-1550.000000	1210.899414	4748.244629
-423.500000	-1550.000000	1209.803711	4772.262207
-423.500000	-1550.000000	1208.707031	4809.953125
-423.500000	-1550.000000	1207.611328	4817.983887
-423.500000	-1550.000000	1206.514648	4723.426270
-423.500000	-1550.000000	1205.416992	4763.379395
-423.500000	-1550.000000	1204.320313	4732.677246
-423.500000	-1550.000000	1203.222656	4740.715820
-423.500000	-1550.000000	1202.125000	4739.639648
-423.500000	-1550.000000	1201.027344	4768.165039
-423.500000	-1550.000000	1199.928711	4835.378418
-423.500000	-1550.000000	1198.831055	4597.573242
-423.500000	-1550.000000	1197.732422	4712.579102
-423.500000	-1550.000000	1196.632813	4681.932617
-423.500000	-1550.000000	1195.534180	4733.180664
-423.500000	-1550.000000	1194.434570	4597.939941
-423.500000	-1550.000000	1193.334961	4649.182617
-423.500000	-1550.000000	1192.235352	4718.584473
-423.500000	-1550.000000	1191.134766	4662.971680
-423.500000	-1550.000000	1190.034180	4643.734375
-423.500000	-1550.000000	1188.933594	4799.399902
-423.500000	-1550.000000	1187.833008	4755.159668
-423.500000	-1550.000000	1186.731445	4860.780273
-423.500000	-1550.000000	1185.630859	4768.878418
-423.500000	-1550.000000	1184.528320	4722.403809
-423.500000	-1550.000000	1183.426758	4791.657715
-423.500000	-1550.000000	1182.324219	4820.050293
-423.500000	-1550.000000	1181.222656	4730.506836
-423.500000	-1550.000000	1180.119141	4783.838867
-423.500000	-1550.000000	1179.016602	4828.078613
-423.500000	-1550.000000	1177.913086	4777.118164
-423.500000	-1550.000000	1176.809570	4891.573730
-423.500000	-1550.000000	1175.706055	4779.461426
-423.500000	-1550.000000	1174.602539	4696.840332
-423.500000	-1550.000000	1173.498047	4781.800293
-423.500000	-1550.000000	1172.393555	4706.005859
-423.500000	-1550.000000	1171.289063	4761.503418
-423.500000	-1550.000000	1170.184570	4900.689453
-423.500000	-1550.000000	1169.079102	4879.207031
-423.500000	-1550.000000	1167.973633	4753.703613
-423.500000	-1550.000000	1166.868164	4752.611816
-423.500000	-1550.000000	1165.761719	4880.367188
-423.500000	-1550.000000	1164.655273	4906.365234
-423.500000	-1550.000000	1163.548828	4893.939941
-423.500000	-1550.000000	1162.442383	4858.930664
-423.500000	-1550.000000	1161.334961	4912.014160
-423.500000	-1550.000000	1160.228516	4863.468262
-423.500000	-1550.000000	1159.121094	4923.297363
-423.500000	-1550.000000	1158.012695	4811.578125
-423.500000	-1550.000000	1156.905273	4794.675293
-423.500000	-1550.000000	1155.796875	4786.802734
-423.500000	-1550.000000	1154.688477	4842.081055
-423.500000	-1550.000000	1153.579102	4845.473145
-423.500000	-1550.000000	1152.470703	4846.609375
-423.500000	-1550.000000	1151.361328	4719.282227
-423.500000	-1550.000000	1150.251953	4821.839355
-423.500000	-1550.000000	1149.141602	4856.768066
-423.500000	-1550.000000	1148.032227	4716.012207
-423.500000	-1550.000000	1146.921875	4827.503418
-423.500000	-1550.000000	1145.810547	4898.422363
-423.500000	-1550.000000	1144.700195	4847.775879
-423.500000	-1550.000000	1143.588867	4898.405273
-423.500000	-1550.000000	1142.477539	4834.283691
-423.500000	-1550.000000	1141.366211	4851.155762
-423.500000	-1550.000000	1140.253906	4832.043457
-423.500000	-1550.000000	1139.142578	4801.699219
-423.500000	-1550.000000	1138.029297	4755.636230
-423.500000	-1550.000000	1136.916992	4835.422852
-423.500000	-1550.000000	1135.804688	4908.432617
-423.500000	-1550.000000	1134.691406	4799.489258
-423.500000	-1550.000000	1133.578125	4820.828125
-423.500000	-1550.000000	1132.463867	4873.584473
-423.500000	-1550.000000	1131.350586	4874.695801
-423.500000	-1550.000000	1130.236328	4889.268555
-423.500000	-1550.000000	1129.121094	4908.320801
-423.500000	-1550.000000	1128.006836	4900.449707
-423.500000	-1550.000000	1126.891602	5013.663086
-423.500000	-1550.000000	1125.776367	4981.111328
-423.500000	-1550.000000	1124.661133	5047.186523
-423.500000	-1550.000000	1123.545898	4916.050293
-423.500000	-1550.000000	1122.429688	4968.667480
-423.500000	-1550.000000	1121.313477	4907.038086
-423.500000	-1550.000000	1120.196289	4995.457031
-423.500000	-1550.000000	1119.080078	5030.107910
-423.500000	-1550.000000	1117.962891	4999.837891
-423.500000	-1550.000000	1116.845703	4994.194336
-423.500000	-1550.000000	1115.727539	5001.974609
-423.500000	-1550.000000	1114.610352	5045.534668
-423.500000	-1550.000000	1113.492188	5095.781738
-423.500000	-1550.000000	1112.374023	5184.006836
-423.500000	-1550.000000	1111.254883	4916.836426
-423.500000	-1550.000000	1110.136719	5203.922363
-423.500000	-1550.000000	1109.017578	5102.178223
-423.500000	-1550.000000	1107.897461	5257.316895
-423.500000	-1550.000000	1106.778320	5329.767090
-423.500000	-1550.000000	1105.658203	5266.011719
-423.500000	-1550.000000	1104.538086	5271.470703
-423.500000	-1550.000000	1103.417969	5439.808594
-423.500000	-1550.000000	1102.296875	5431.837891
-423.500000	-1550.000000	1101.175781	5379.266602
-423.500000	-1550.000000	1100.054688	5406.987305
-423.500000	-1550.000000	1098.933594	5405.715332
-423.500000	-1550.000000	1097.811523	5330.898438
-423.500000	-1550.000000	1096.689453	5603.700684
-423.500000	-1550.000000	1095.567383	5417.491211
-423.500000	-1550.000000	1094.444336	5422.895996
-423.500000	-1550.000000	1093.321289	5475.054199
-423.500000	-1550.000000	1092.198242	5585.063965
-423.500000	-1550.000000	1091.075195	5583.746094
-423.500000	-1550.000000	1089.952148	5682.551270
-423.500000	-1550.000000	1088.828125	5752.391602
-423.500000	-1550.000000	1087.704102	5628.717773
-423.500000	-1550.000000	1086.579102	5767.460449
-423.500000	-1550.000000	1085.454102	5857.234375
-423.500000	-1550.000000	1084.330078	6018.079102
-423.500000	-1550.000000	1083.204102	6032.207520
-423.500000	-1550.000000	1082.079102	6086.311523
-423.500000	-1550.000000	1080.953125	6262.530762
-423.500000	-1550.000000	1079.827148	6323.213379
-423.500000	-1550.000000	1078.701172	6330.593262
-423.500000	-1550.000000	1077.574219	6482.215332
-423.500000	-1550.000000	1076.447266	6593.828613
-423.500000	-1550.000000	1075.320313	6718.696777
-423.500000	-1550.000000	1074.193359	6632.832520
-423.500000	-1550.000000	1073.065430	6775.366699
-423.500000	-1550.000000	1071.937500	6707.260254
-423.500000	-1550.000000	1070.809570	6951.643555
-423.500000	-1550.000000	1069.680664	6801.552246
-423.500000	-1550.000000	1068.552734	6742.344727
-423.500000	-1550.000000	1067.423828	6687.593262
-423.500000	-1550.000000	1066.293945	6573.091309
-423.500000	-1550.000000	1065.165039	6516.190430
-423.500000	-1550.000000	1064.035156	6530.127441
-423.500000	-1550.000000	1062.905273	6349.372070
-423.500000	-1550.000000	1061.774414	6102.347656
-423.500000	-1550.000000	1060.643555	6032.341797
-423.500000	-1550.000000	1059.512695	6081.748535
-423.500000	-1550.000000	1058.381836	5998.517578
-423.500000	-1550.000000	1057.250977	5948.471191
-423.500000	-1550.000000	1056.119141	5933.793945
-423.500000	-1550.000000	1054.987305	5837.403320
-423.500000	-1550.000000	1053.854492	5924.330566
-423.500000	-1550.000000	1052.722656	5728.645996
-423.500000	-1550.000000	1051.589844	5808.934570
-423.500000	-1550.000000	1050.457031	5787.684082
-423.500000	-1550.000000	1049.323242	5887.771973
-423.500000	-1550.000000	1048.189453	5864.305176
-423.500000	-1550.000000	1047.055664	5805.569824
-423.500000	-1550.000000	1045.921875	5784.336914
-423.500000	-1550.000000	1044.787109	5763.112793
-423.500000	-1550.000000	1043.653320	5900.538574
-423.500000	-1550.000000	1042.517578	6007.058105
-423.500000	-1550.000000	1041.382813	5910.915527
-423.500000	-1550.000000	1040.247070	5935.914551
-423.500000	-1550.000000	1039.111328	5985.113770
-423.500000	-1550.000000	1037.975586	6058.496094
-423.500000	-1550.000000	1036.838867	6145.042969
-423.500000	-1550.000000	1035.703125	6046.778320
-423.500000	-1550.000000	1034.566406	6001.338379
-423.500000	-1550.000000	1033.428711	5999.890625
-423.500000	-1550.000000	1032.291016	6205.058105
-423.500000	-1550.000000	1031.154297	6076.104492
-423.500000	-1550.000000	1030.015625	6202.061523
-423.500000	-1550.000000	1028.877930	6176.401855
-423.500000	-1550.000000	1027.739258	6109.031250
-423.500000	-1550.000000	1026.600586	6092.186035
-423.500000	-1550.000000	1025.460938	6029.255859
-423.500000	-1550.000000	1024.322266	6078.265625
-423.500000	-1550.000000	1023.182617	6076.793457
-423.500000	-1550.000000	1022.042969	6079.707520
-423.500000	-1550.000000	1020.902344	6045.342773
-423.500000	-1550.000000	1019.761719	5936.458984
-423.500000	-1550.000000	1018.621094	5972.276855
-423.500000	-1550.000000	1017.480469	5918.239746
-423.500000	-1550.000000	1016.338867	6026.332520
-423.500000	-1550.000000	1015.197266	5827.762207
-423.500000	-1550.000000	1014.055664	5990.560547
-423.500000	-1550.000000	1012.914063	5910.299805
-423.500000	-1550.000000	1011.771484	5963.573242
-423.500000	-1550.000000	1010.628906	5977.437012
-423.500000	-1550.000000	1009.486328	5962.856934
-423.500000	-1550.000000	1008.342773	5996.394043
-423.500000	-1550.000000	1007.199219	6112.994629
-423.500000	-1550.000000	1006.055664	6498.390625
-423.500000	-1550.000000	1004.911133	6693.479492
-423.500000	-1550.000000	1003.767578	6903.765137
-423.500000	-1550.000000	1002.623047	6917.368652
-423.500000	-1550.000000	1001.477539	6821.780762
-423.500000	-1550.000000	1000.333008	6555.954102
-423.500000	-1550.000000	999.187500	6307.716797
-423.500000	-1550.000000	998.041992	6039.961426
-423.500000	-1550.000000	996.895508	6171.556152
-423.500000	-1550.000000	995.749023	6108.977051
-423.500000	-1550.000000	994.602539	6050.788086
-423.500000	-1550.000000	993.456055	5927.229004
-423.500000	-1550.000000	992.308594	6017.310059
-423.500000	-1550.000000	991.161133	6157.459473
-423.500000	-1550.000000	990.013672	6129.808105
-423.500000	-1550.000000	988.866211	6091.280273
-423.500000	-1550.000000	987.717773	6174.696777
-423.500000	-1550.000000	986.569336	6144.881836
-423.500000	-1550.000000	985.419922	6143.370605
-423.500000	-1550.000000	984.271484	6120.102539
-423.500000	-1550.000000	983.122070	6138.171875
-423.500000	-1550.000000	981.971680	6291.055664
-423.500000	-1550.000000	980.822266	6269.938965
-423.500000	-1550.000000	979.671875	6516.173340
-423.500000	-1550.000000	978.521484	6660.155273
-423.500000	-1550.000000	977.371094	6801.892578
-423.500000	-1550.000000	976.219727	7091.248047
-423.500000	-1550.000000	975.068359	7354.402832
-423.500000	-1550.000000	973.916992	7793.263184
-423.500000	-1550.000000	972.764648	8138.582520
-423.500000	-1550.000000	971.612305	8794.004883
-423.500000	-1550.000000	970.459961	9492.485352
-423.500000	-1550.000000	969.307617	10136.401367
-423.500000	-1550.000000	968.154297	11202.784180
-423.500000	-1550.000000	967.000977	12214.447266
-423.500000	-1550.000000	965.847656	13333.958984
-423.500000	-1550.000000	964.693359	14372.751953
-423.500000	-1550.000000	963.539063	15298.395508
-423.500000	-1550.000000	962.384766	16312.360352
-423.500000	-1550.000000	961.229492	16847.373047
-423.500000	-1550.000000	960.075195	16999.021484
-423.500000	-1550.000000	958.918945	16903.914063
-423.500000	-1550.000000	957.763672	16447.578125
-423.500000	-1550.000000	956.607422	15556.752930
-423.500000	-1550.000000	955.451172	14752.856445
-423.500000	-1550.000000	954.294922	14096.352539
-423.500000	-1550.000000	953.138672	13371.016602
-423.500000	-1550.000000	951.981445	12298.181641
-423.500000	-1550.000000	950.824219	11392.204102
-423.500000	-1550.000000	949.666016	10894.829102
-423.500000	-1550.000000	948.507813	10300.544922
-423.500000	-1550.000000	947.349609	9892.182617
-423.500000	-1550.000000	946.191406	9339.442383
-423.500000	-1550.000000	945.032227	8881.901367
-423.500000	-1550.000000	943.874023	8644.583984
-423.500000	-1550.000000	942.713867	8418.166016
-423.500000	-1550.000000	941.554688	7980.595703
-423.500000	-1550.000000	940.394531	7696.263672
-423.500000	-1550.000000	939.234375	7390.525391
-423.500000	-1550.000000	938.073242	7332.664551
-423.500000	-1550.000000	936.913086	7180.073242
-423.500000	-1550.000000	935.751953	7049.087402
-423.500000	-1550.000000	934.589844	6834.218262
-423.500000	-1550.000000	933.428711	6716.294922
-423.500000	-1550.000000	932.266602	6583.369141
-423.500000	-1550.000000	931.104492	6542.997070
-423.500000	-1550.000000	929.941406	6356.420898
-423.500000	-1550.000000	928.778320	6378.468262
-423.500000	-1550.000000	927.615234	6486.473633
-423.500000	-1550.000000	926.452148	6364.510742
-423.500000	-1550.000000	925.288086	6375.794922
-423.500000	-1550.000000	924.124023	6322.643066
-423.500000	-1550.000000	922.959961	6258.781250
-423.500000	-1550.000000	921.794922	6070.450684
-423.500000	-1550.000000	920.629883	6216.991699
-423.500000	-1550.000000	919.464844	6114.583008
-423.500000	-1550.000000	918.299805	6170.949707
-423.500000	-1550.000000	917.133789	6158.666504
-423.500000	-1550.000000	915.967773	5977.024902
-423.500000	-1550.000000	914.800781	5979.797363
-423.500000	-1550.000000	913.634766	5952.569336
-423.500000	-1550.000000	912.466797	5942.491211
-423.500000	-1550.000000	911.299805	5945.267090
-423.500000	-1550.000000	910.132813	5907.358887
-423.500000	-1550.000000	908.964844	5918.702637
-423.500000	-1550.000000	907.795898	5915.059082
-423.500000	-1550.000000	906.627930	5842.952148
-423.500000	-1550.000000	905.458984	5837.188477
-423.500000	-1550.000000	904.290039	5872.056641
-423.500000	-1550.000000	903.120117	5812.839355
-423.500000	-1550.000000	901.951172	5674.570801
-423.500000	-1550.000000	900.780273	5713.723633
-423.500000	-1550.000000	899.610352	5893.846191
-423.500000	-1550.000000	898.439453	5789.830566
-423.500000	-1550.000000	897.268555	5722.163574
-423.500000	-1550.000000	896.097656	5776.202148
-423.500000	-1550.000000	894.926758	5761.922363
-423.500000	-1550.000000	893.754883	5783.918457
-423.500000	-1550.000000	892.582031	5722.716797
-423.500000	-1550.000000	891.410156	5759.635742
-423.500000	-1550.000000	890.237305	5683.546387
-423.500000	-1550.000000	889.064453	5888.828613
-423.500000	-1550.000000	887.891602	5831.919922
-423.500000	-1550.000000	886.717773	5868.769043
-423.500000	-1550.000000	885.543945	5941.802734
-423.500000	-1550.000000	884.369141	5865.758301
-423.500000	-1550.000000	883.195313	5842.966797
-423.500000	-1550.000000	882.020508	6007.452637
-423.500000	-1550.000000	880.844727	5952.721680
-423.500000	-1550.000000	879.669922	5946.937012
-423.500000	-1550.000000	878.494141	6060.232910
-423.500000	-1550.000000	877.318359	5946.002930
-423.500000	-1550.000000	876.141602	6042.235840
-423.500000	-1550.000000	874.964844	5966.312500
-423.500000	-1550.000000	873.788086	5828.825195
-423.500000	-1550.000000	872.611328	5922.886719
-423.500000	-1550.000000	871.433594	5917.111816
-423.500000	-1550.000000	870.255859	5985.628906
-423.500000	-1550.000000	869.077148	5945.886719
-423.500000	-1550.000000	867.899414	5910.406738
-423.500000	-1550.000000	866.720703	5809.195313
-423.500000	-1550.000000	865.541016	5913.710938
-423.500000	-1550.000000	864.362305	5848.585449
-423.500000	-1550.000000	863.182617	5942.438477
-423.500000	-1550.000000	862.001953	5983.272949
-423.500000	-1550.000000	860.822266	5954.186035
-423.500000	-1550.000000	859.641602	6001.347168
-423.500000	-1550.000000	858.460938	6109.877441
-423.500000	-1550.000000	857.279297	6116.757324
-423.500000	-1550.000000	856.097656	6041.109375
-423.500000	-1550.000000	854.916016	6071.270508
-423.500000	-1550.000000	853.734375	6128.908691
-423.500000	-1550.000000	852.551758	6046.969727
-423.500000	-1550.000000	851.369141	6070.760742
-423.500000	-1550.000000	850.185547	6048.047852
-423.500000	-1550.000000	849.002930	5970.415527
-423.500000	-1550.000000	847.819336	5981.531738
-423.500000	-1550.000000	846.634766	5925.070801
-423.500000	-1550.000000	845.451172	6005.854492
-423.500000	-1550.000000	844.266602	5989.513184
-423.500000	-1550.000000	843.081055	5964.739258
-423.500000	-1550.000000	841.896484	6026.461426
-423.500000	-1550.000000	840.710938	5790.806641
-423.500000	-1550.000000	839.524414	5957.952637
-423.500000	-1550.000000	838.338867	5869.977051
-423.500000	-1550.000000	837.152344	6108.655762
-423.500000	-1550.000000	835.965820	5949.059570
-423.500000	-1550.000000	834.778320	6092.817383
-423.500000	-1550.000000	833.590820	5924.884766
-423.500000	-1550.000000	832.403320	6013.842285
-423.500000	-1550.000000	831.215820	6106.960938
-423.500000	-1550.000000	830.027344	5789.780273
-423.500000	-1550.000000	828.838867	5815.601074
-423.500000	-1550.000000	827.649414	5748.886719
-423.500000	-1550.000000	826.459961	5768.395508
-423.500000	-1550.000000	825.270508	5752.165527
-423.500000	-1550.000000	824.081055	5643.495117
-423.500000	-1550.000000	822.890625	5585.293945
-423.500000	-1550.000000	821.700195	5741.318848
-423.500000	-1550.000000	820.509766	5794.389160
-423.500000	-1550.000000	819.318359	5750.882324
-423.500000	-1550.000000	818.126953	5719.987305
-423.500000	-1550.000000	816.935547	5888.393555
-423.500000	-1550.000000	815.743164	5897.322754
-423.500000	-1550.000000	814.550781	6004.788574
-423.500000	-1550.000000	813.358398	6032.544434
-423.500000	-1550.000000	812.165039	5953.412598
-423.500000	-1550.000000	810.971680	5949.740234
-423.500000	-1550.000000	809.778320	5864.386230
-423.500000	-1550.000000	808.583984	5806.296387
-423.500000	-1550.000000	807.389648	5762.889648
-423.500000	-1550.000000	806.195313	5715.318848
-423.500000	-1550.000000	805.000000	5502.488281
-423.500000	-1550.000000	803.804688	5603.516602
-423.500000	-1550.000000	802.609375	5683.579102
-423.500000	-1550.000000	801.414063	5479.285645
-423.500000	-1550.000000	800.217773	5511.266602
-423.500000	-1550.000000	799.020508	5465.920898
-423.500000	-1550.000000	797.824219	5454.020020
-423.500000	-1550.000000	796.626953	5488.067383
-423.500000	-1550.000000	795.429688	5384.303711
-423.500000	-1550.000000	794.231445	5395.389648
-423.500000	-1550.000000	793.033203	5437.768555
-423.500000	-1550.000000	791.834961	5425.885254
-423.500000	-1550.000000	790.636719	5484.915039
-423.500000	-1550.000000	789.437500	5343.755371
-423.500000	-1550.000000	788.238281	5356.916504
-423.500000	-1550.000000	787.038086	5420.081055
-423.500000	-1550.000000	785.837891	5354.047363
-423.500000	-1550.000000	784.637695	5502.568848
-423.500000	-1550.000000	783.437500	5584.380371
-423.500000	-1550.000000	782.236328	5370.557617
-423.500000	-1550.000000	781.035156	5487.735840
-423.500000	-1550.000000	779.833008	5450.893555
-423.500000	-1550.000000	778.630859	5484.787598
-423.500000	-1550.000000	777.428711	5524.900391
-423.500000	-1550.000000	776.226563	5438.182617
-423.500000	-1550.000000	775.023438	5499.066406
-423.500000	-1550.000000	773.820313	5437.332520
-423.500000	-1550.000000	772.616211	5379.784668
-423.500000	-1550.000000	771.413086	5490.469238
-423.500000	-1550.000000	770.208984	5443.315918
-423.500000	-1550.000000	769.003906	5375.432617
-423.500000	-1550.000000	767.798828	5353.231934
-423.500000	-1550.000000	766.593750	5395.346680
-423.500000	-1550.000000	765.388672	5501.724609
-423.500000	-1550.000000	764.182617	5535.481445
-423.500000	-1550.000000	762.976563	5422.060059
-423.500000	-1550.000000	761.769531	5424.736328
-423.500000	-1550.000000	760.562500	5448.125488
-423.500000	-1550.000000	759.355469	5461.145508
-423.500000	-1550.000000	758.148438	5503.143066
-423.500000	-1550.000000	756.940430	5466.462402
-423.500000	-1550.000000	755.732422	5566.373535
-423.500000	-1550.000000	754.523438	5409.707520
-423.500000	-1550.000000	753.315430	5449.600586
-423.500000	-1550.000000	752.105469	5404.699219
-423.500000	-1550.000000	750.896484	5456.971680
-423.500000	-1550.000000	749.686523	5544.344727
-423.500000	-1550.000000	748.476563	5466.395996
-423.500000	-1550.000000	747.265625	5274.895020
-423.500000	-1550.000000	746.055664	5407.667480
-423.500000	-1550.000000	744.843750	5408.256836
-423.500000	-1550.000000	743.632813	5441.862793
-423.500000	-1550.000000	742.420898	5440.376953
-423.500000	-1550.000000	741.208984	5300.701172
-423.500000	-1550.000000	739.996094	5488.952637
-423.500000	-1550.000000	738.783203	5522.495117
-423.500000	-1550.000000	737.570313	5442.672363
-423.500000	-1550.000000	736.357422	5358.770996
-423.500000	-1550.000000	735.143555	5431.452637
-423.500000	-1550.000000	733.929688	5252.877441
-423.500000	-1550.000000	732.714844	5391.419922
-423.500000	-1550.000000	731.500000	5396.114746
-423.500000	-1550.000000	730.285156	5592.148438
-423.500000	-1550.000000	729.069336	5391.094727
-423.500000	-1550.000000	727.853516	5414.288574
-423.500000	-1550.000000	726.637695	5544.368164
-423.500000	-1550.000000	725.420898	5316.771973
-423.500000	-1550.000000	724.204102	5442.694824
