#Wave		#Intensity
1819.605469	2260.419189
1818.640625	2317.447998
1817.675781	2270.291260
1816.710938	2251.657227
1815.746094	2277.070068
1814.781250	2279.162354
1813.815430	2353.756592
1812.849609	2283.344238
1811.883789	2329.434082
1810.917969	2251.294678
1809.951172	2310.307129
1808.985352	2229.619385
1808.018555	2273.094971
1807.051758	2319.136963
1806.083984	2285.027832
1805.117188	2284.529785
1804.149414	2335.706787
1803.181641	2342.947266
1802.212891	2376.010986
1801.245117	2298.031738
1800.276367	2424.024414
1799.307617	2304.773926
1798.338867	2342.977783
1797.370117	2401.803711
1796.400391	2331.641357
1795.431641	2338.870361
1794.461914	2304.846191
1793.492188	2363.629150
1792.521484	2381.154541
1791.551758	2341.990234
1790.581055	2341.481445
1789.610352	2304.918457
1788.638672	2397.109619
1787.667969	2370.847168
1786.696289	2406.363770
1785.724609	2369.818115
1784.752930	2356.441406
1783.781250	2384.222168
1782.808594	2399.133545
1781.836914	2416.609619
1780.864258	2305.562744
1779.890625	2420.701660
1778.917969	2409.900391
1777.944336	2293.790039
1776.970703	2352.358887
1775.997070	2482.793213
1775.023438	2433.483398
1774.049805	2471.452881
1773.075195	2517.103516
1772.100586	2496.036621
1771.125977	2426.248779
1770.150391	2418.031494
1769.175781	2461.090576
1768.200195	2340.093750
1767.224609	2498.464844
1766.249023	2474.867188
1765.272461	2479.455566
1764.296875	2445.628662
1763.320313	2626.883057
1762.343750	2526.485352
1761.366211	2459.400391
1760.389648	2545.864014
1759.412109	2535.082520
1758.434570	2508.959961
1757.457031	2544.217041
1756.479492	2500.208740
1755.500977	2543.120117
1754.522461	2532.350342
1753.543945	2580.345947
1752.565430	2546.584717
1751.585938	2594.556396
1750.607422	2642.507324
1749.627930	2486.229980
1748.648438	2577.568359
1747.667969	2528.534912
1746.688477	2663.191162
1745.708008	2555.501221
1744.727539	2662.045166
1743.747070	2648.726074
1742.765625	2688.936523
1741.785156	2706.195801
1740.803711	2774.400635
1739.822266	2684.655518
1738.840820	2755.382324
1737.858398	2650.403564
1736.875977	2744.016602
1735.894531	2682.348877
1734.911133	2714.849854
1733.928711	2711.722900
1732.945313	2749.290039
1731.962891	2896.178711
1730.979492	2910.810303
1729.995117	2887.310791
1729.011719	2919.725586
1728.027344	2972.450928
1727.042969	2887.992920
1726.058594	2930.544678
1725.074219	2952.766602
1724.089844	3030.823242
1723.104492	3047.938477
1722.119141	3087.881836
1721.133789	3153.175537
1720.147461	3084.022461
1719.162109	3167.038574
1718.175781	3163.825195
1717.189453	3120.059814
1716.203125	3078.847168
1715.215820	2989.516113
1714.229492	3042.067871
1713.242188	3071.805664
1712.254883	3096.467041
1711.266602	3042.646729
1710.279297	3117.919189
1709.291016	3021.103027
1708.302734	3091.288574
1707.314453	3103.273193
1706.325195	3115.252686
1705.336914	3112.058594
1704.347656	3189.746826
1703.358398	3178.957275
1702.368164	3228.806885
1701.378906	3230.642822
1700.388672	3214.800293
1699.398438	3193.915039
1698.408203	3372.457764
1697.417969	3217.788330
1696.426758	3305.413818
1695.435547	3276.958496
1694.444336	3420.020996
1693.453125	3424.333984
1692.461914	3441.250732
1691.469727	3364.900391
1690.477539	3464.981934
1689.485352	3534.787109
1688.493164	3405.568604
1687.500000	3480.393311
1686.507813	3527.489990
1685.514648	3476.391602
1684.520508	3488.234131
1683.527344	3540.331299
1682.533203	3479.199951
1681.540039	3498.579346
1680.545898	3621.050049
1679.550781	3544.855713
1678.556641	3536.559814
1677.561523	3666.482666
1676.566406	3628.014404
1675.571289	3695.063965
1674.576172	3779.664551
1673.580078	3801.457275
1672.583984	3697.724121
1671.587891	3616.623047
1670.591797	3583.232422
1669.595703	3589.995605
1668.598633	3744.739746
1667.601563	3686.266357
1666.604492	3660.410400
1665.607422	3777.441406
1664.609375	3671.382813
1663.611328	3628.007568
1662.614258	3699.880371
1661.615234	3646.499512
1660.617188	3545.566406
1659.618164	3579.859863
1658.620117	3599.121338
1657.620117	3553.313721
1656.621094	3592.586914
1655.622070	3464.258301
1654.622070	3621.068115
1653.622070	3495.287842
1652.622070	3539.538818
1651.622070	3631.254639
1650.621094	3538.034180
1649.620117	3549.772461
1648.619141	3686.383301
1647.618164	3613.186279
1646.617188	3709.781494
1645.615234	3684.033447
1644.613281	3882.885010
1643.611328	3879.564941
1642.609375	3816.381592
1641.606445	3965.200928
1640.603516	4101.490723
1639.600586	4108.097656
1638.597656	4049.903320
1637.594727	4153.695313
1636.590820	4035.727295
1635.586914	3920.299805
1634.583008	3804.921387
1633.579102	3829.009277
1632.575195	3703.742676
1631.570313	3401.842285
1630.565430	3550.400879
1629.560547	3470.047607
1628.554688	3471.797852
1627.549805	3513.330322
1626.543945	3296.310547
1625.538086	3357.745361
1624.532227	3334.668945
1623.525391	3309.118164
1622.519531	3308.415771
1621.512695	3357.378906
1620.505859	3344.252686
1619.498047	3321.203125
1618.491211	3221.230957
1617.483398	3270.170654
1616.475586	3296.763672
1615.467773	3219.180664
1614.458984	3243.293457
1613.451172	3245.084473
1612.442383	3293.966553
1611.433594	3288.311768
1610.423828	3223.199707
1609.415039	3281.962891
1608.405273	3343.177246
1607.395508	3439.028320
1606.385742	3393.741943
1605.375977	3521.714355
1604.365234	3535.813232
1603.354492	3465.796875
1602.343750	3568.939453
1601.333008	3642.364990
1600.321289	3490.786621
1599.309570	3415.895020
1598.298828	3506.604248
1597.286133	3315.619873
1596.274414	3386.550537
1595.261719	3356.197021
1594.250000	3199.932861
1593.237305	3186.911377
1592.223633	3225.724121
1591.210938	3225.040039
1590.197266	3202.153076
1589.183594	3181.742432
1588.169922	3215.590820
1587.156250	3229.701416
1586.141602	3278.314453
1585.126953	3312.120361
1584.112305	3222.719238
1583.097656	3254.059082
1582.083008	3250.906250
1581.067383	3232.980713
1580.051758	3192.906738
1579.036133	3221.764648
1578.019531	3240.767090
1577.003906	3094.927979
1575.987305	3204.957031
1574.970703	3246.083008
1573.954102	3287.191162
1572.936523	3225.041260
1571.919922	3214.526855
1570.902344	3285.100098
1569.884766	3245.098389
1568.866211	3298.442871
1567.848633	3157.779297
1566.830078	3152.199463
1565.811523	3107.350586
1564.792969	3197.487305
1563.773438	3245.877441
1562.754883	3176.507568
1561.735352	3271.476563
1560.715820	3283.041992
1559.695313	3223.513184
1558.675781	3274.296631
1557.655273	3195.192139
1556.634766	3216.562256
1555.614258	3176.691650
1554.592773	3237.236084
1553.572266	3309.995850
1552.550781	3145.297363
1551.529297	3308.591309
1550.507813	3305.442383
1549.485352	3290.064209
1548.462891	3445.885742
1547.440430	3315.563965
1546.417969	3248.856201
1545.395508	3331.264893
1544.372070	3259.695068
1543.348633	3276.104248
1542.325195	3302.276367
1541.301758	3108.657715
1540.277344	3308.198730
1539.252930	3324.583008
1538.228516	3209.176514
1537.204102	3345.130615
1536.179688	3312.708008
1535.154297	3329.076660
1534.128906	3347.876709
1533.103516	3235.024658
1532.078125	3375.702637
1531.051758	3348.180664
1530.025391	3218.345703
1528.999023	3332.143555
1527.972656	3270.554199
1526.946289	3235.772949
1525.918945	3378.704834
1524.891602	3429.094727
1523.864258	3219.111572
1522.836914	3259.782959
1521.808594	3353.944092
1520.780273	3324.051514
1519.751953	3252.842529
1518.723633	3308.054932
1517.695313	3227.158691
1516.666016	3265.345703
1515.636719	3327.806885
1514.607422	3387.812744
1513.578125	3302.111572
1512.547852	3274.706787
1511.517578	3341.965820
1510.487305	3343.681396
1509.457031	3427.878662
1508.425781	3320.430176
1507.395508	3179.077881
1506.364258	3277.802246
1505.333008	3439.505615
1504.300781	3392.729492
1503.269531	3367.778809
1502.237305	3359.794922
1501.205078	3443.843750
1500.171875	3445.531982
1499.139648	3478.689453
1498.106445	3458.586426
1497.073242	3423.973389
1496.040039	3486.144775
1495.006836	3463.633545
1493.972656	3455.641113
1492.938477	3546.777832
1491.904297	3514.598633
1490.870117	3535.599854
1489.834961	3677.400146
1488.800781	3432.635742
1487.765625	3559.906250
1486.729492	3573.635254
1485.694336	3693.578369
1484.658203	3634.864746
1483.622070	3646.155029
1482.585938	3722.579590
1481.549805	3683.192871
1480.512695	3764.399170
1479.476563	3766.007324
1478.439453	3808.592773
1477.401367	3721.020508
1476.364258	3751.549561
1475.326172	3849.516357
1474.288086	3916.131104
1473.250000	3924.926758
1472.211914	4085.385742
1471.172852	4120.617188
1470.133789	4148.613770
1469.094727	4049.086670
1468.055664	4139.625488
1467.015625	4251.769043
1465.976563	4195.561035
1464.936523	4269.182617
1463.895508	4371.612305
1462.855469	4421.136719
1461.814453	4468.237305
1460.773438	4397.630859
1459.732422	4492.740723
1458.691406	4441.364258
1457.649414	4538.823730
1456.608398	4614.643555
1455.566406	4690.430664
1454.523438	4687.028320
1453.481445	4736.386719
1452.438477	4661.045410
1451.395508	4645.665039
1450.352539	4649.463867
1449.309570	4789.839355
1448.265625	4666.637695
1447.221680	4708.749512
1446.177734	4537.726074
1445.133789	4541.541992
1444.088867	4677.001465
1443.044922	4477.376953
1442.000000	4485.987305
1440.954102	4501.769531
1439.909180	4436.233887
1438.863281	4361.162109
1437.817383	4233.531250
1436.771484	4266.083008
1435.725586	4226.936523
1434.678711	4216.473633
1433.631836	4210.791992
1432.584961	4188.396973
1431.538086	4266.282227
1430.490234	4286.848145
1429.443359	4159.449707
1428.395508	4180.029297
1427.346680	4157.663086
1426.298828	4233.084473
1425.250000	4177.335449
1424.201172	4164.518555
1423.152344	4177.923340
1422.103516	4191.321777
1421.053711	4111.805664
1420.003906	4077.576660
1418.954102	4152.899414
1417.904297	4168.671387
1416.854492	4110.648926
1415.803711	4121.662598
1414.752930	4130.292480
1413.702148	4100.858887
1412.650391	4223.641113
1411.598633	4324.971191
1410.547852	4226.576172
1409.495117	4289.834961
1408.443359	4310.295410
1407.390625	4330.747070
1406.338867	4384.440918
1405.285156	4411.990723
1404.232422	4394.420898
1403.179688	4343.627930
1402.125977	4383.033203
1401.072266	4415.303223
1400.018555	4276.772461
1398.963867	4325.651367
1397.909180	4253.586914
1396.854492	4160.219238
1395.799805	4130.880859
1394.745117	4231.875977
1393.689453	4079.348389
1392.633789	4071.361328
1391.578125	4146.255371
1390.522461	4109.847656
1389.465820	4172.865723
1388.409180	4086.772705
1387.352539	4166.329102
1386.295898	4177.254395
1385.239258	4178.715332
1384.181641	4168.353516
1383.124023	4070.533691
1382.066406	4079.105469
1381.007813	4326.317871
1379.950195	4249.787109
1378.891602	4215.801270
1377.832031	4148.771484
1376.773438	4084.131592
1375.713867	4161.134766
1374.655273	4096.519043
1373.594727	4093.271240
1372.535156	3974.447266
1371.475586	4056.122070
1370.415039	4057.599609
1369.354492	4151.006348
1368.292969	3938.004150
1367.232422	3998.409180
1366.170898	4002.251709
1365.109375	3930.728027
1364.047852	3903.972900
1362.986328	3863.104248
1361.923828	4050.552734
1360.861328	4019.081543
1359.798828	4006.444580
1358.735352	4033.797607
1357.672852	4089.357178
1356.609375	4034.393066
1355.545898	4040.566162
1354.481445	3863.434814
1353.417969	3958.923096
1352.353516	3995.644531
1351.289063	4022.955566
1350.224609	4036.166504
1349.159180	4082.235840
1348.093750	4165.835449
1347.028320	4052.298096
1345.962891	4011.533203
1344.896484	4202.981445
1343.831055	4122.337402
1342.764648	4229.279297
1341.698242	4174.446289
1340.630859	4187.594727
1339.563477	4151.537109
1338.497070	4162.341309
1337.428711	4112.252930
1336.361328	4219.054688
1335.292969	4124.499512
1334.224609	4125.937500
1333.156250	4326.255859
1332.087891	4318.291016
1331.018555	4165.326660
1329.950195	4220.532227
1328.879883	4165.839844
1327.810547	4314.509277
1326.741211	4269.166504
1325.670898	4228.515137
1324.600586	4213.573730
1323.529297	4154.270508
1322.458984	4211.725586
1321.387695	4306.501465
1320.316406	4349.895020
1319.245117	4458.596680
1318.172852	4301.333008
1317.101563	4183.783203
1316.029297	4266.800781
1314.957031	4209.917480
1313.883789	4299.883789
1312.810547	4247.677246
1311.737305	4158.220215
1310.664063	4259.782715
1309.590820	4321.714844
1308.516602	4418.539551
1307.442383	4336.104492
1306.368164	4344.457031
1305.293945	4296.970703
1304.218750	4212.290039
1303.143555	4381.118164
1302.068359	4259.255859
1300.993164	4242.045898
1299.916992	4292.235352
1298.840820	4328.462402
1297.764648	4285.695313
1296.688477	4366.031250
1295.611328	4346.492188
1294.535156	4326.961426
1293.458008	4288.872070
1292.379883	4415.541016
1291.302734	4416.884277
1290.224609	4418.226563
1289.146484	4315.223145
1288.068359	4481.182617
1286.989258	4394.434082
1285.910156	4462.978027
1284.831055	4496.740234
1283.751953	4609.237305
1282.672852	4448.433594
1281.592773	4759.995605
1280.512695	4492.754395
1279.432617	4628.292480
1278.351563	4578.679199
1277.270508	4593.854492
1276.189453	4655.274902
1275.108398	4668.113770
1274.027344	4680.946289
1272.945313	4654.484375
1271.863281	4653.449707
1270.781250	4622.384277
1269.698242	4757.618164
1268.616211	4763.486816
1267.533203	4704.713867
1266.449219	4659.814941
1265.366211	4723.386230
1264.282227	4588.530762
1263.198242	4608.266602
1262.114258	4651.051758
1261.030273	4564.714355
1259.945313	4727.344238
1258.860352	4638.723145
1257.775391	4669.941895
1256.690430	4613.618652
1255.604492	4582.651855
1254.518555	4795.744141
1253.432617	4757.843750
1252.345703	4731.465820
1251.259766	4576.255371
1250.172852	4823.660645
1249.085938	4886.974609
1247.998047	4945.661133
1246.911133	4735.370117
1245.823242	4644.679688
1244.735352	4834.347656
1243.646484	4881.504883
1242.557617	4788.543945
1241.469727	4886.204590
1240.379883	4908.064941
1239.291016	4865.651855
1238.201172	4736.061523
1237.111328	4627.176270
1236.021484	4720.173340
1234.931641	4767.267090
1233.840820	4679.079102
1232.750000	4682.611328
1231.659180	4676.975098
1230.568359	4659.885742
1229.476563	4661.127441
1228.384766	4637.178711
1227.292969	4629.266113
1226.200195	4534.376953
1225.108398	4542.508789
1224.015625	4447.680664
1222.922852	4501.575195
1221.829102	4473.117188
1220.736328	4394.371582
1219.642578	4429.953125
1218.547852	4444.950195
1217.454102	4512.490234
1216.359375	4516.039063
1215.264648	4499.031738
1214.169922	4539.113281
1213.075195	4517.541992
1211.979492	4571.292969
1210.883789	4478.990234
1209.788086	4548.692871
1208.691406	4611.521484
1207.595703	4530.670898
1206.499023	4588.914551
1205.401367	4596.990723
1204.304688	4456.953125
1203.207031	4444.551270
1202.109375	4596.139648
1201.011719	4579.156738
1199.913086	4518.926758
1198.815430	4608.940430
1197.716797	4580.586914
1196.617188	4386.171875
1195.518555	4444.310059
1194.418945	4479.682129
1193.319336	4487.756348
1192.219727	4493.553223
1191.119141	4512.980957
1190.018555	4473.330566
1188.917969	4567.708008
1187.817383	4507.624512
1186.715820	4533.840332
1185.614258	4521.456543
1184.512695	4672.466797
1183.411133	4614.680664
1182.308594	4609.089844
1181.206055	4619.375000
1180.103516	4631.922363
1179.000977	4512.994629
1177.897461	4455.307617
1176.793945	4547.180176
1175.690430	4559.729980
1174.586914	4662.857910
1173.482422	4650.469238
1172.377930	4588.286621
1171.273438	4632.495605
1170.167969	4620.120605
1169.063477	4657.514648
1167.958008	4593.123535
1166.851563	4573.980957
1165.746094	4568.409180
1164.639648	4632.897949
1163.533203	4620.535645
1162.426758	4759.525391
1161.319336	4744.879883
1160.211914	4764.108887
1159.104492	4747.210449
1157.997070	4730.319336
1156.888672	4663.796387
1155.781250	4789.045410
1154.671875	4697.730469
1153.563477	4608.711426
1152.454102	4747.410156
1151.344727	4604.330078
1150.235352	4639.317871
1149.125977	4611.213867
1148.015625	4720.503418
1146.905273	4458.223145
1145.794922	4682.302734
1144.684570	4681.219238
1143.573242	4639.634277
1142.461914	4571.073730
1141.350586	4567.765625
1140.238281	4690.374512
1139.125977	4594.872070
1138.013672	4564.589355
1136.901367	4639.926270
1135.788086	4686.023926
1134.674805	4662.476563
1133.561523	4704.055664
1132.448242	4801.735840
1131.333984	4713.090820
1130.219727	4689.556152
1129.105469	4836.521973
1127.991211	4729.986328
1126.875977	4778.214355
1125.760742	4658.290039
1124.645508	4849.947266
1123.529297	4812.965820
1122.413086	4899.208984
1121.296875	4792.803711
1120.180664	4746.902832
1119.063477	4797.281738
1117.947266	4764.828125
1116.829102	4830.840332
1115.711914	4847.607422
1114.593750	4815.162598
1113.476563	4856.519043
1112.357422	4931.387207
1111.239258	4702.270508
1110.120117	4826.295410
1109.000977	4952.494629
1107.881836	4971.433594
1106.761719	4999.294434
1105.642578	4960.171875
1104.522461	5068.364746
1103.401367	5060.480469
1102.281250	4994.600586
1101.160156	5111.627441
1100.039063	5123.803223
1098.916992	5098.077148
1097.794922	5052.304688
1096.672852	5202.626465
1095.550781	5159.077148
1094.428711	5177.904785
1093.305664	5259.065918
1092.182617	5262.277832
1091.059570	5352.280762
1089.935547	5344.342773
1088.811523	5291.918945
1087.687500	5499.715820
1086.563477	5500.639160
1085.438477	5490.447266
1084.313477	5600.265137
1083.188477	5618.936035
1082.062500	5773.095215
1080.937500	5931.621582
1079.811523	6076.750977
1078.684570	6257.325684
1077.558594	6209.239258
1076.431641	6218.859863
1075.304688	6334.943848
1074.176758	6419.925781
1073.049805	6469.393066
1071.921875	6423.524902
1070.792969	6382.109863
1069.665039	6409.393066
1068.536133	6405.652832
1067.407227	6231.402344
1066.278320	6128.079102
1065.148438	6088.991699
1064.018555	6047.708984
1062.888672	6024.143555
1061.758789	5856.822266
1060.627930	5910.705566
1059.497070	5772.229004
1058.366211	5806.213379
1057.234375	5776.099609
1056.102539	5602.405273
1054.970703	5574.561523
1053.838867	5597.516602
1052.706055	5556.440430
1051.573242	5460.207031
1050.440430	5522.887207
1049.307617	5609.802246
1048.173828	5634.922363
1047.040039	5719.562012
1045.905273	5590.334473
1044.771484	5617.642090
1043.636719	5673.579102
1042.501953	5797.775391
1041.366211	5750.133301
1040.231445	5720.127441
1039.095703	5813.402832
1037.958984	5789.996094
1036.823242	5931.611328
1035.686523	5837.797363
1034.549805	5880.371582
1033.413086	5806.400879
1032.275391	5796.207520
1031.137695	5878.312988
1030.000000	5966.968750
1028.861328	5884.258789
1027.722656	5808.175293
1026.583984	5800.184082
1025.445313	5853.651855
1024.305664	5825.902832
1023.166016	5925.405762
1022.026367	5871.332031
1020.886719	5685.720215
1019.746094	5668.996094
1018.605469	5779.394531
1017.463867	5688.155762
1016.323242	5772.207031
1015.181641	5751.094238
1014.040039	5745.316895
1012.897461	5680.438965
1011.754883	5635.287598
1010.612305	5706.117676
1009.469727	5685.041504
1008.326172	5683.656250
1007.182617	5787.214844
1006.039063	6021.869141
1004.895508	6356.930664
1003.750977	6724.598145
1002.606445	6790.666016
1001.461914	6688.558594
1000.316406	6409.666016
999.170898	6082.892090
998.025391	5996.303223
996.878906	5909.756348
995.733398	5853.784180
994.585938	5887.237305
993.439453	5789.877441
992.291992	5982.423340
991.145508	5943.915039
989.997070	5914.137695
988.849609	5908.329590
987.701172	5850.269531
986.552734	5888.012695
985.404297	6017.135254
984.254883	5859.008301
983.105469	5981.547363
981.956055	6145.341797
980.805664	6041.647949
979.655273	6174.915527
978.504883	6429.802734
977.354492	6462.975098
976.203125	6676.396973
975.051758	7017.822266
973.900391	7250.536621
972.748047	7678.460449
971.595703	8173.433105
970.443359	8822.173828
969.291016	9548.663086
968.137695	10352.844727
966.984375	11369.049805
965.831055	12482.267578
964.676758	13512.602539
963.522461	14295.501953
962.368164	15134.312500
961.213867	15515.907227
960.058594	15947.089844
958.903320	15737.560547
957.747070	15567.072266
956.591797	14793.256836
955.435547	13944.146484
954.278320	13175.438477
953.122070	12426.560547
951.964844	11565.703125
950.807617	10927.759766
949.649414	10136.805664
948.492188	9657.138672
947.333984	9257.572266
946.174805	8797.782227
945.016602	8435.301758
943.857422	8066.531250
942.697266	7844.570801
941.538086	7605.474121
940.377930	7392.357910
939.217773	7162.110352
938.057617	7011.679199
936.896484	6865.629883
935.735352	6732.570313
934.574219	6569.441406
933.412109	6333.226563
932.250000	6350.997559
931.087891	6093.444824
929.924805	6149.970703
928.761719	6152.721680
927.598633	6002.873047
926.435547	6037.888184
925.271484	5982.661621
924.107422	5981.152344
922.943359	5876.582031
921.778320	5836.460449
920.613281	5910.095703
919.448242	5850.674316
918.283203	5834.180176
917.117188	5847.714844
915.951172	5734.754883
914.784180	5748.305664
913.618164	5682.566406
912.451172	5743.249512
911.283203	5746.076172
910.116211	5588.316406
908.948242	5633.989746
907.779297	5782.360840
906.611328	5511.315918
905.442383	5456.440918
904.273438	5551.280273
903.103516	5453.664063
901.934570	5450.137695
900.763672	5591.912109
899.593750	5599.031738
898.422852	5420.342773
897.251953	5549.202148
896.081055	5515.766602
894.910156	5548.502441
893.738281	5532.149902
892.565430	5554.197754
891.393555	5550.644531
890.220703	5591.860840
889.047852	5571.247070
887.874023	5588.996582
886.701172	5657.861328
885.527344	5652.150879
884.352539	5565.535156
883.178711	5672.664063
882.003906	5694.615234
880.828125	5595.287598
879.653320	5623.625977
878.477539	5732.751465
877.301758	5654.745605
876.125000	5676.667969
874.948242	5717.700195
873.771484	5635.506836
872.594727	5738.112305
871.416992	5643.214844
870.239258	5586.571777
869.060547	5623.324707
867.882813	5766.130859
866.704102	5626.780762
865.524414	5644.408203
864.345703	5689.583496
863.166016	5660.559570
861.985352	5856.133301
860.805664	5799.542969
859.625000	5770.509766
858.444336	5773.246582
857.262695	5761.165039
856.081055	5903.554688
854.899414	5891.443359
853.717773	5724.951660
852.535156	5852.435547
851.352539	5785.385254
850.168945	5832.482910
848.986328	5830.962891
847.801758	5922.375977
846.618164	5853.261230
845.433594	5862.288574
844.249023	5879.752441
843.064453	5867.666504
841.878906	5872.461426
840.693359	5748.614746
839.507813	5979.019043
838.322266	5931.083984
837.135742	5910.566406
835.948242	5932.189941
834.761719	6158.088379
833.574219	6118.573730
832.386719	6068.554199
831.198242	5942.801758
830.010742	5867.605957
828.821289	5714.626953
827.632813	5772.000488
826.443359	5682.190430
825.253906	5649.169922
824.064453	5691.804199
822.874023	5658.796387
821.683594	5648.904297
820.492188	5660.010742
819.301758	5752.965332
818.110352	5745.150879
816.917969	5859.008789
815.726563	6197.205078
814.534180	6176.696289
813.340820	6298.730469
812.148438	6278.202637
810.955078	6092.181641
809.760742	5902.069336
808.567383	5860.720703
807.373047	5756.593750
806.178711	5533.233887
804.983398	5538.040527
803.788086	5388.062500
802.592773	5369.900879
801.396484	5280.669922
800.200195	5356.593262
799.003906	5284.126953
797.807617	5266.007813
796.610352	5281.310059
795.412109	5330.007324
794.214844	5178.307617
793.016602	5291.689453
791.818359	5352.857422
790.619141	5149.131836
789.420898	5279.106934
788.220703	5290.200684
787.021484	5345.047852
785.821289	5306.117188
784.621094	5233.882324
783.419922	5434.448730
782.219727	5310.175781
781.017578	5387.830078
779.816406	5340.612305
778.614258	5239.340820
777.412109	5233.772949
776.209961	5286.414063
775.006836	5162.374512
773.803711	5154.751465
772.599609	5342.381348
771.395508	5295.256348
770.191406	5356.108398
768.987305	5288.248535
767.782227	5151.952637
766.577148	5279.169434
765.371094	5321.291504
764.165039	5294.973633
762.958984	5417.899902
761.752930	5364.630859
760.545898	5363.177734
759.338867	5285.098145
758.130859	5366.481445
756.923828	5298.790527
755.715820	5307.698242
754.506836	5312.462891
753.297852	5226.224609
752.088867	5334.386230
750.879883	5399.079590
749.669922	5234.359375
748.459961	5299.042969
747.249023	5146.829102
746.038086	5221.822754
744.827148	5104.802246
743.616211	5188.018555
742.404297	5248.494629
741.191406	5178.997070
739.979492	5227.068359
738.766602	5198.840820
737.553711	5236.573730
736.339844	5239.260742
735.125977	5297.556641
733.912109	5226.093750
732.698242	5274.066406
731.483398	5208.820801
730.267578	5289.688477
729.052734	5280.007813
727.836914	5251.824707
726.621094	5203.098633
725.404297	5281.818848
724.187500	5247.491211
