#Wave		#Intensity
1819.643555	2680.380371
1818.678711	2760.739746
1817.713867	2630.552002
1816.749023	2598.883545
1815.784180	2644.945068
1814.819336	2745.375977
1813.853516	2638.610107
1812.887695	2619.911865
1811.921875	2676.281738
1810.956055	2611.004639
1809.989258	2649.241943
1809.023438	2692.635498
1808.056641	2673.946045
1807.089844	2650.093506
1806.122070	2778.760254
1805.155273	2682.534180
1804.187500	2679.365723
1803.219727	2733.029297
1802.251953	2670.450439
1801.283203	2731.838623
1800.315430	2687.357910
1799.346680	2681.611084
1798.377930	2830.690186
1797.408203	2744.939697
1796.439453	2808.824219
1795.469727	2795.319824
1794.500000	2696.742432
1793.530273	2647.182129
1792.559570	2752.264893
1791.589844	2731.054932
1790.619141	2761.372559
1789.648438	2755.622314
1788.677734	2755.023926
1787.706055	2754.425781
1786.735352	2619.997070
1785.763672	2740.364746
1784.791992	2757.778320
1783.819336	2713.456055
1782.847656	2810.582520
1781.875000	2820.256592
1780.902344	2745.105957
1779.929688	2667.418213
1778.956055	2808.146729
1777.983398	2715.066895
1777.009766	2891.677734
1776.036133	2711.323730
1775.061523	2769.777588
1774.087891	2830.772461
1773.113281	2709.563721
1772.138672	2801.329102
1771.164063	2751.992920
1770.189453	2802.681885
1769.213867	2909.749512
1768.238281	2852.732422
1767.262695	2775.239502
1766.287109	2912.987549
1765.311523	2868.813965
1764.334961	2737.589111
1763.358398	2844.531982
1762.381836	2744.086426
1761.405273	2848.422607
1760.427734	2973.183105
1759.451172	2987.890381
1758.473633	2882.385254
1757.496094	2884.320801
1756.517578	2873.472900
1755.540039	3051.767822
1754.561523	2948.895264
1753.583008	2899.718262
1752.603516	2985.938477
1751.625000	2959.758057
1750.645508	3010.184082
1749.666016	2953.378174
1748.686523	2955.294434
1747.707031	3000.585693
1746.726563	3043.306396
1745.747070	3032.449707
1744.766602	2955.301270
1743.786133	2921.524414
1742.804688	2987.164063
1741.824219	3088.450928
1740.842773	3090.334473
1739.861328	3048.916260
1738.878906	3089.006348
1737.897461	3090.888672
1736.915039	3105.497559
1735.932617	3081.925781
1734.950195	3223.750244
1733.967773	3118.760010
1732.984375	3214.736084
1732.000977	3280.157715
1731.017578	3350.635742
1730.034180	3286.375000
1729.050781	3379.691406
1728.066406	3218.909912
1727.082031	3276.640381
1726.097656	3283.556152
1725.113281	3336.169922
1724.127930	3218.688232
1723.143555	3436.253906
1722.158203	3260.443115
1721.172852	3561.619385
1720.186523	3525.349365
1719.201172	3329.346680
1718.214844	3432.574219
1717.228516	3391.285645
1716.242188	3476.717285
1715.254883	3493.707520
1714.267578	3429.635498
1713.281250	3403.577148
1712.292969	3473.741455
1711.305664	3427.434082
1710.318359	3535.525146
1709.330078	3468.982178
1708.341797	3455.591797
1707.353516	3513.023682
1706.364258	3507.215332
1705.375977	3546.915039
1704.386719	3556.267090
1703.397461	3578.250000
1702.407227	3544.641113
1701.417969	3687.862061
1700.427734	3659.294678
1699.437500	3678.711914
1698.447266	3569.380615
1697.457031	3765.472656
1696.465820	3754.575684
1695.475586	3804.228027
1694.483398	3725.229004
1693.492188	3787.474121
1692.500977	3756.412842
1691.508789	3821.145264
1690.516602	3827.889893
1689.524414	3953.046631
1688.532227	3861.521729
1687.539063	3958.915527
1686.546875	3955.553223
1685.553711	3916.949951
1684.560547	4046.987305
1683.566406	4061.221924
1682.573242	4145.890137
1681.579102	4114.824219
1680.584961	4071.198486
1679.589844	4158.324219
1678.595703	4114.707520
1677.600586	4176.656738
1676.605469	4158.179199
1675.610352	4162.317383
1674.615234	4241.796387
1673.619141	4326.263184
1672.624023	4285.176270
1671.627930	4224.027832
1670.630859	4406.306152
1669.634766	4302.509277
1668.637695	4261.461914
1667.640625	4265.570313
1666.643555	4204.490723
1665.646484	4183.542969
1664.649414	4087.421387
1663.651367	4171.740234
1662.653320	4025.561523
1661.655273	4014.687256
1660.656250	4111.487305
1659.658203	4088.081787
1658.659180	3969.576660
1657.660156	4106.361816
1656.661133	4060.455566
1655.661133	3952.036865
1654.661133	4101.241699
1653.662109	4010.361816
1652.661133	3877.025391
1651.661133	3973.668457
1650.660156	3887.870361
1649.660156	4066.906982
1648.659180	3916.188477
1647.657227	3940.326660
1646.656250	4034.356445
1645.654297	4068.442871
1644.653320	4075.064697
1643.650391	4099.147949
1642.648438	4118.232422
1641.646484	4202.148438
1640.643555	4258.602539
1639.640625	4282.625977
1638.637695	4229.378418
1637.633789	4116.352051
1636.630859	4235.055664
1635.626953	4122.075684
1634.623047	4078.867920
1633.619141	4112.856445
1632.614258	4067.179443
1631.609375	3934.421875
1630.604492	3921.146484
1629.599609	3810.863525
1628.594727	3889.637939
1627.588867	3836.596680
1626.583984	3791.035645
1625.578125	3703.241943
1624.571289	3732.274414
1623.565430	3868.121094
1622.558594	3777.882813
1621.551758	3695.132568
1620.544922	3736.555176
1619.538086	3641.437500
1618.530273	3660.518311
1617.523438	3689.515869
1616.515625	3668.887695
1615.506836	3668.109131
1614.499023	3771.474121
1613.490234	3755.799561
1612.481445	3831.837891
1611.472656	3831.024902
1610.463867	3887.194580
1609.455078	3985.448730
1608.445313	4088.614258
1607.435547	4169.452148
1606.425781	4453.238281
1605.415039	4682.457031
1604.405273	4743.322266
1603.394531	4883.323730
1602.383789	5107.358398
1601.373047	4930.708008
1600.361328	4704.687500
1599.349609	4582.575195
1598.337891	4418.504395
1597.326172	4316.269531
1596.314453	3991.764160
1595.301758	3850.148926
1594.289063	3935.750977
1593.276367	3712.744141
1592.263672	3847.699707
1591.250977	3804.935547
1590.237305	3811.529785
1589.223633	3820.587402
1588.209961	3718.672607
1587.196289	3730.211182
1586.181641	3766.393799
1585.166992	3822.276123
1584.152344	3754.940918
1583.137695	3734.437744
1582.122070	3765.662598
1581.107422	3769.788574
1580.091797	3771.450928
1579.076172	3647.587891
1578.059570	3757.547607
1577.043945	3828.096924
1576.027344	3723.978027
1575.010742	3750.239014
1573.994141	3737.150391
1572.976563	3665.072021
1571.959961	3745.395752
1570.942383	3707.744873
1569.924805	3741.350586
1568.906250	3696.348145
1567.888672	3754.496582
1566.870117	3709.510254
1565.851563	3689.087402
1564.833008	3791.371338
1563.814453	3790.567139
1562.794922	3733.345703
1561.775391	3752.172852
1560.755859	3697.435547
1559.736328	3699.102539
1558.715820	3806.154785
1557.695313	3695.082764
1556.674805	3770.242676
1555.654297	3793.935303
1554.633789	3675.589844
1553.612305	3736.015869
1552.590820	3801.311768
1551.569336	3746.666504
1550.547852	3811.931885
1549.525391	3764.645752
1548.502930	3722.270752
1547.480469	3794.834717
1546.458008	3723.135498
1545.435547	3734.565674
1544.412109	3775.313721
1543.388672	3730.537354
1542.365234	3900.722656
1541.341797	3877.916260
1540.317383	3798.965332
1539.293945	3754.221191
1538.269531	3819.316406
1537.244141	3667.229004
1536.219727	3803.057861
1535.194336	3826.639404
1534.168945	3803.881104
1533.143555	3739.688721
1532.118164	3775.454590
1531.092773	3852.631348
1530.066406	3717.815674
1529.040039	3807.150391
1528.013672	3774.682861
1526.986328	3705.707520
1525.958984	3889.922852
1524.932617	3735.771484
1523.904297	3800.674072
1522.876953	3668.500977
1521.849609	3704.204102
1520.821289	3759.344971
1519.792969	3802.306396
1518.764648	3825.804199
1517.735352	3842.001709
1516.706055	3724.564453
1515.677734	3828.222656
1514.647461	3790.980225
1513.618164	3795.030273
1512.587891	3799.078125
1511.558594	3837.102295
1510.528320	3865.404053
1509.497070	3857.303955
1508.466797	3858.908691
1507.435547	3765.939697
1506.404297	3840.295654
1505.373047	3856.446045
1504.341797	3887.129395
1503.309570	3806.346924
1502.277344	3919.387939
1501.245117	3916.131836
1500.212891	3941.932861
1499.180664	3938.672607
1498.147461	3949.935547
1497.114258	3895.859131
1496.081055	3986.961670
1495.046875	4049.000244
1494.013672	4094.084473
1492.979492	4148.819824
1491.945313	4097.174805
1490.911133	4144.635742
1489.875977	4163.081543
1488.840820	4205.676758
1487.805664	4098.513672
1486.770508	4102.469238
1485.735352	4094.352051
1484.699219	4083.824707
1483.663086	4160.172852
1482.626953	4253.376465
1481.590820	4312.770996
1480.553711	4263.619629
1479.516602	4175.913086
1478.479492	4247.337891
1477.442383	4325.961914
1476.405273	4281.667480
1475.367188	4367.477051
1474.329102	4421.939453
1473.291016	4601.591797
1472.252930	4615.053711
1471.213867	4703.124512
1470.174805	4762.280273
1469.135742	4835.846191
1468.096680	4873.299316
1467.056641	5071.861816
1466.017578	5022.691406
1464.977539	5033.637207
1463.936523	4979.688477
1462.896484	5029.083008
1461.855469	5107.283691
1460.814453	5187.852539
1459.773438	5162.730469
1458.732422	5274.461914
1457.690430	5244.530762
1456.649414	5315.400879
1455.607422	5297.469238
1454.564453	5267.551270
1453.522461	5307.193359
1452.479492	5411.555176
1451.436523	5587.787109
1450.393555	5471.551270
1449.350586	5489.548828
1448.306641	5433.273926
1447.262695	5453.666504
1446.218750	5282.481934
1445.174805	5274.167969
1444.129883	5206.017578
1443.085938	5212.081055
1442.041016	5184.645996
1440.995117	5219.415039
1439.950195	4991.101563
1438.904297	5059.370605
1437.858398	5036.770996
1436.812500	4925.751465
1435.766602	5091.957520
1434.719727	4988.140137
1433.672852	5030.061523
1432.625977	4993.163086
1431.579102	4930.018066
1430.532227	4885.995605
1429.484375	4911.196289
1428.436523	4936.386230
1427.388672	4854.223633
1426.339844	4960.499023
1425.291992	4990.429688
1424.243164	4932.145020
1423.193359	4959.685059
1422.144531	4915.728027
1421.095703	4948.022949
1420.045898	5054.139160
1418.996094	4922.082031
1417.945313	5013.873047
1416.895508	4927.104980
1415.844727	4999.816406
1414.793945	4936.880859
1413.743164	5161.794922
1412.691406	4956.158691
1411.640625	5069.220215
1410.588867	4982.550293
1409.537109	4950.580078
1408.484375	5030.302246
1407.432617	5022.091309
1406.379883	5182.517090
1405.327148	5174.275879
1404.274414	5078.196289
1403.220703	4958.421387
1402.166992	5071.259277
1401.113281	4994.243164
1400.059570	4988.421387
1399.005859	4973.115723
1397.951172	5066.882813
1396.896484	4933.040039
1395.841797	4958.044922
1394.786133	4869.302734
1393.731445	4856.405762
1392.675781	4810.355469
1391.620117	4882.722168
1390.563477	4947.955078
1389.507813	5006.058594
1388.451172	4926.884277
1387.394531	4859.572754
1386.337891	4908.194824
1385.280273	4933.146484
1384.222656	4790.216309
1383.165039	4789.179199
1382.107422	4842.499512
1381.049805	4874.530273
1379.991211	4809.691895
1378.932617	4780.307617
1377.874023	4831.220703
1376.815430	4768.792969
1375.755859	4706.391602
1374.696289	4863.475098
1373.636719	4673.680176
1372.577148	4724.558594
1371.516602	4612.696777
1370.456055	4687.142578
1369.395508	4608.337402
1368.334961	4522.495605
1367.274414	4547.431152
1366.212891	4605.335449
1365.151367	4627.886230
1364.089844	4532.694824
1363.027344	4602.333496
1361.965820	4587.210938
1360.903320	4612.097656
1359.839844	4582.863281
1358.777344	4567.753418
1357.713867	4667.877441
1356.651367	4591.627441
1355.586914	4616.483398
1354.523438	4467.425781
1353.459961	4583.929199
1352.395508	4568.836426
1351.331055	4642.992676
1350.265625	4644.328613
1349.201172	4697.308105
1348.135742	4752.610840
1347.070313	4742.188477
1346.004883	4811.532227
1344.938477	4744.810059
1343.873047	4696.875977
1342.806641	4815.415527
1341.739258	4779.205078
1340.672852	4850.806152
1339.605469	4838.031738
1338.538086	4851.028809
1337.470703	4807.814941
1336.403320	4717.792969
1335.334961	4796.349121
1334.266602	4734.451660
1333.198242	4803.609863
1332.129883	4767.468750
1331.060547	4733.682129
1329.992188	4868.265137
1328.921875	4797.065918
1327.852539	4749.270508
1326.783203	4717.852051
1325.712891	4852.318359
1324.642578	4874.611328
1323.572266	4798.815918
1322.500977	4856.130371
1321.429688	4843.394043
1320.358398	4788.656738
1319.287109	4866.932129
1318.215820	4840.204590
1317.143555	4857.798340
1316.071289	4896.368164
1314.999023	4902.285156
1313.925781	4831.290039
1312.853516	4811.586914
1311.780273	4938.654297
1310.706055	4909.619141
1309.632813	4834.025879
1308.558594	4844.601563
1307.485352	4790.002441
1306.410156	4788.947266
1305.335938	5034.499023
1304.260742	4882.201660
1303.186523	4971.817871
1302.110352	5040.469727
1301.035156	4906.865723
1299.958984	4945.290039
1298.883789	5004.606934
1297.807617	4840.899902
1296.730469	4925.758789
1295.654297	4950.211426
1294.577148	5074.470703
1293.500000	5010.686523
1292.422852	5039.743164
1291.344727	5008.471191
1290.266602	5162.756348
1289.188477	4948.286133
1288.110352	5102.515137
1287.031250	5087.479004
1285.953125	5183.676758
1284.874023	5152.411133
1283.793945	5153.585938
1282.714844	5210.336426
1281.634766	5204.550781
1280.554688	5110.809570
1279.474609	5232.326660
1278.393555	5365.357422
1277.313477	5290.145996
1276.232422	5226.530762
1275.151367	5290.108887
1274.069336	5275.063965
1272.987305	5345.535645
1271.905273	5270.409180
1270.823242	5246.136719
1269.741211	5355.827637
1268.658203	5421.597656
1267.575195	5482.721191
1266.492188	5499.964355
1265.409180	5332.600586
1264.325195	5211.450195
1263.241211	5380.966797
1262.157227	5335.954590
1261.072266	5334.764648
1259.988281	5381.978027
1258.903320	5479.866699
1257.818359	5315.067871
1256.732422	5452.083496
1255.647461	5469.289063
1254.561523	5461.160156
1253.474609	5547.409668
1252.388672	5553.073242
1251.301758	5659.969238
1250.214844	5513.785645
1249.127930	5544.748535
1248.041016	5568.799316
1246.953125	5487.096680
1245.865234	5688.111816
1244.777344	5615.608398
1243.689453	5515.570801
1242.600586	5574.047852
1241.511719	5467.174316
1240.422852	5504.974121
1239.333984	5533.575684
1238.244141	5431.370117
1237.154297	5453.091797
1236.064453	5444.986328
1234.974609	5482.745117
1233.883789	5373.762695
1232.792969	5416.103516
1231.702148	5261.352539
1230.610352	5324.317383
1229.519531	5382.672363
1228.427734	5310.471191
1227.335938	5130.696777
1226.243164	5161.585938
1225.151367	5197.038086
1224.058594	5163.835449
1222.965820	5096.336426
1221.872070	5079.178711
1220.778320	5078.032227
1219.685547	5154.604980
1218.590820	5057.457031
1217.497070	5076.877930
1216.402344	5050.603516
1215.307617	4948.975098
1214.212891	5025.487305
1213.118164	5017.502441
1212.022461	5036.907227
1210.926758	5266.221191
1209.831055	5023.220703
1208.734375	5122.433594
1207.638672	5324.208496
1206.541992	5158.866211
1205.444336	5098.438965
1204.347656	5170.198242
1203.250000	5216.865234
1202.152344	5124.577637
1201.054688	5173.509766
1199.956055	5122.250488
1198.858398	5137.018555
1197.759766	5274.657715
1196.660156	5066.433105
1195.561523	5158.534668
1194.461914	5143.717285
1193.362305	5165.280762
1192.262695	5195.925781
1191.162109	5174.290527
1190.061523	5175.383301
1188.960938	5187.831543
1187.860352	5245.690918
1186.758789	5260.386719
1185.658203	5279.614746
1184.555664	5257.985840
1183.454102	5247.709961
1182.351563	5214.755371
1181.250000	5492.497070
1180.146484	5303.061035
1179.043945	5403.850586
1177.940430	5293.836426
1176.837891	5292.625000
1175.733398	5302.739258
1174.629883	5274.348633
1173.525391	5343.328125
1172.420898	5312.676758
1171.316406	5315.984375
1170.211914	5323.815430
1169.106445	5356.524414
1168.000977	5382.433105
1166.895508	5311.105957
1165.789063	5375.439941
1164.682617	5453.303711
1163.576172	5465.606934
1162.469727	5529.858887
1161.363281	5688.933594
1160.255859	5579.245605
1159.148438	5532.813477
1158.040039	5490.916016
1156.932617	5546.058594
1155.824219	5551.547852
1154.715820	5277.377441
1153.607422	5337.039063
1152.498047	5434.994141
1151.388672	5411.202148
1150.279297	5283.772949
1149.168945	5341.122070
1148.059570	5371.417969
1146.949219	5397.195801
1145.838867	5434.216309
1144.727539	5351.937012
1143.616211	5370.949219
1142.504883	5385.452148
1141.393555	5469.667969
1140.282227	5425.678711
1139.169922	5276.052734
1138.057617	5315.283691
1136.944336	5406.175293
1135.832031	5285.859375
1134.718750	5405.911621
1133.605469	5458.544922
1132.491211	5365.236816
1131.377930	5447.030273
1130.263672	5378.448730
1129.149414	5469.172852
1128.034180	5380.431152
1126.919922	5569.770020
1125.804688	5454.144043
1124.688477	5524.591797
1123.573242	5370.937012
1122.457031	5439.129395
1121.340820	5466.975586
1120.224609	5548.547363
1119.107422	5374.879395
1117.990234	5472.099121
1116.873047	5459.632324
1115.755859	5489.674316
1114.637695	5495.100098
1113.519531	5549.713867
1112.401367	5570.769043
1111.283203	5567.229492
1110.164063	5548.050293
1109.044922	5573.556641
1107.925781	5637.017090
1106.805664	5640.160645
1105.685547	5531.686035
1104.565430	5742.407715
1103.445313	5705.358887
1102.324219	5824.478516
1101.204102	5818.648926
1100.082031	5786.064941
1098.960938	5775.787109
1097.838867	5778.885254
1096.716797	5895.615234
1095.594727	5878.633301
1094.472656	5821.571289
1093.349609	5922.620117
1092.226563	5972.421875
1091.103516	5948.757813
1089.979492	5934.003906
1088.855469	6139.476563
1087.731445	6075.756348
1086.607422	6063.203125
1085.482422	6159.576172
1084.357422	6120.339355
1083.232422	6401.062012
1082.106445	6401.768066
1080.981445	6469.095703
1079.855469	6516.408203
1078.728516	6734.615234
1077.602539	6768.525391
1076.475586	6795.762207
1075.348633	6836.293945
1074.220703	6923.375000
1073.093750	6997.111328
1071.965820	6931.168457
1070.837891	6820.935059
1069.708984	6870.269531
1068.580078	6835.409668
1067.451172	6844.854980
1066.322266	6719.245117
1065.192383	6613.614746
1064.062500	6574.419922
1062.932617	6471.084473
1061.802734	6518.200684
1060.671875	6490.109375
1059.541016	6331.596191
1058.410156	6312.401855
1057.278320	6306.474121
1056.147461	6227.645020
1055.015625	6164.313477
1053.882813	6116.468262
1052.750977	6280.572754
1051.618164	6270.240234
1050.484375	6244.465820
1049.351563	6234.145020
1048.217773	6159.869141
1047.083984	6478.107422
1045.950195	6141.482422
1044.815430	6322.929199
1043.680664	6352.257324
1042.545898	6385.975586
1041.411133	6543.004883
1040.275391	6618.492188
1039.139648	6581.679688
1038.003906	6731.942871
1036.867188	6607.111816
1035.730469	6625.316406
1034.593750	6630.315918
1033.457031	6716.659668
1032.319336	6868.902344
1031.181641	6746.380371
1030.043945	6799.675781
1028.906250	6584.976074
1027.767578	6923.752441
1026.628906	6952.813477
1025.489258	6757.982910
1024.350586	6815.593750
1023.210938	6568.237305
1022.071289	6553.486328
1020.930664	6532.163086
1019.790039	6482.350098
1018.649414	6358.043457
1017.508789	6360.882324
1016.367188	6341.812500
1015.225586	6340.271484
1014.083984	6216.116211
1012.942383	6260.573242
1011.799805	6302.819824
1010.657227	6338.480469
1009.514648	6498.805664
1008.371094	6617.500488
1007.227539	7302.400879
1006.083984	8078.769531
1004.939453	9228.441406
1003.795898	10097.903320
1002.651367	10189.358398
1001.505859	9171.458008
1000.361328	8125.671875
999.215820	7268.100586
998.070313	7098.302246
996.923828	6902.407227
995.777344	6761.132324
994.630859	6696.241699
993.484375	6664.081055
992.336914	6692.958496
991.189453	6806.796875
990.041992	6641.750488
988.894531	6868.789063
987.746094	6762.592285
986.597656	6582.437988
985.448242	6730.977051
984.299805	6814.171875
983.150391	6647.184570
982.000977	6823.864258
980.850586	6896.100586
979.700195	6818.327637
978.549805	7105.652832
977.399414	7195.142090
976.248047	7460.511230
975.096680	7680.148438
973.945313	8040.780762
972.792969	8466.341797
971.640625	9015.368164
970.488281	9394.921875
969.335938	10160.311523
968.182617	11157.313477
967.029297	11913.214844
965.875977	12920.119141
964.721680	13902.690430
963.567383	14624.851563
962.413086	15337.990234
961.258789	15606.960938
960.103516	15700.480469
958.948242	15478.027344
957.791992	15112.904297
956.636719	14488.426758
955.480469	13918.313477
954.323242	13013.418945
953.166992	12145.711914
952.009766	11462.087891
950.852539	10863.045898
949.694336	10404.671875
948.537109	9981.068359
947.378906	9536.089844
946.219727	9030.910156
945.061523	8797.811523
943.902344	8428.947266
942.743164	8314.708984
941.583008	7976.327637
940.422852	7713.546875
939.262695	7733.160156
938.102539	7535.193848
936.941406	7434.237305
935.780273	7279.503418
934.619141	7114.083496
933.457031	7017.608398
932.294922	6895.363770
931.132813	6833.403809
929.970703	6756.421875
928.807617	6679.477051
927.644531	6621.913086
926.480469	6815.778809
925.317383	6685.168945
924.153320	6601.871582
922.988281	6548.674805
921.824219	6615.710938
920.659180	6620.477539
919.494141	6605.931152
918.328125	6582.811035
917.162109	6413.882813
915.996094	6525.883301
914.830078	6541.376953
913.663086	6619.001465
912.496094	6505.927734
911.329102	6555.677734
910.161133	6359.170898
908.993164	6404.648926
907.825195	6313.140137
906.656250	6354.325684
905.487305	6307.791504
904.318359	6351.093262
903.149414	6253.272461
901.979492	6384.194336
900.809570	6378.293945
899.639648	6325.398438
898.468750	6308.834961
897.297852	6300.819824
896.126953	6337.633789
894.955078	6342.416992
893.783203	6291.725586
892.611328	6430.892578
891.439453	6271.448242
890.266602	6380.700684
889.093750	6357.753418
887.919922	6304.985352
886.746094	6490.830078
885.572266	6521.110840
884.398438	6449.175781
883.223633	6460.291504
882.048828	6452.248047
880.874023	6550.582520
879.698242	6529.755371
878.523438	6472.789063
877.346680	6566.787109
876.170898	6499.210938
874.994141	6635.646484
873.817383	6476.743652
872.639648	6598.246094
871.462891	6513.741699
870.285156	6327.396484
869.106445	6550.696777
867.927734	6504.452637
866.749023	6623.664063
865.570313	6465.042480
864.390625	6465.488770
863.210938	6576.136230
862.031250	6661.300781
860.851563	6737.946777
859.670898	6791.257813
858.490234	6833.954590
857.308594	6838.529785
856.126953	6857.913086
854.945313	6934.401855
853.763672	6845.888672
852.581055	6909.651855
851.398438	6800.050293
850.214844	6899.714844
849.032227	6828.198242
847.847656	6817.969727
846.664063	6759.178711
845.479492	6748.970703
844.294922	6711.330566
843.110352	6618.850098
841.924805	6640.323242
840.740234	6581.648438
839.553711	6605.226074
838.368164	6713.098633
837.181641	6814.591309
835.995117	6538.945313
834.807617	6499.321777
833.620117	6575.520996
832.432617	6596.949707
831.245117	6365.836914
830.056641	6484.083984
828.868164	6473.966309
827.678711	6343.996094
826.489258	6489.480469
825.299805	6473.060547
824.110352	6509.175293
822.919922	6517.962402
821.729492	6434.344238
820.539063	6508.226074
819.347656	6596.759766
818.156250	6792.259766
816.964844	7008.632324
815.772461	6987.904785
814.580078	7044.762695
813.387695	7128.838379
812.194336	7181.434570
811.000977	7058.022949
809.807617	6899.069336
808.613281	6700.415039
807.418945	6591.877441
806.224609	6552.457520
805.029297	6458.659668
803.833984	6390.010254
802.638672	6221.022949
801.443359	6123.203125
800.247070	6096.493164
799.050781	6096.958984
797.853516	6178.889160
796.656250	6066.561035
795.458984	6188.120605
794.260742	6042.452148
793.063477	6051.271973
791.864258	6014.191895
790.666016	6039.695801
789.466797	6061.015137
788.267578	5932.244141
787.067383	5984.835938
785.868164	6006.149414
784.666992	6117.007324
783.466797	6119.531250
782.265625	5992.992188
781.064453	6076.707031
779.863281	5979.371582
778.661133	5938.245605
777.458984	6040.618652
776.255859	6038.993652
775.052734	5970.863281
773.849609	5994.187988
772.646484	5994.649902
771.442383	6034.565918
770.238281	6103.522949
769.033203	5888.102539
767.829102	6011.007324
766.623047	6015.605957
765.417969	6005.685059
764.211914	6020.646484
763.005859	5965.127930
761.799805	6011.171387
760.592773	5995.042480
759.385742	6061.759766
758.177734	6047.693359
756.969727	6062.611328
755.761719	6048.549805
754.553711	6020.013672
753.344727	5989.423340
752.135742	6029.146973
750.925781	5926.221191
749.716797	6009.333984
748.505859	6007.697266
747.295898	6053.563965
746.084961	5948.673828
744.874023	5899.573730
743.662109	5978.446289
742.451172	5960.309082
741.238281	5849.366211
740.026367	5979.733398
738.813477	6023.449219
737.600586	6095.991211
736.386719	6055.176758
735.172852	5923.755371
733.958984	5924.190918
732.745117	5943.152344
731.530273	6044.422852
730.314453	6005.729004
729.099609	6032.875977
727.883789	5985.978516
726.667969	6072.730469
725.451172	5947.747559
724.234375	5898.853516
