#Wave		#Intensity
1819.643555	2343.388428
1818.678711	2421.155762
1817.713867	2412.851074
1816.749023	2433.052490
1815.784180	2347.032471
1814.819336	2450.118652
1813.853516	2371.900879
1812.887695	2373.971436
1811.921875	2497.690430
1810.956055	2414.338135
1809.989258	2475.902832
1809.023438	2457.256348
1808.056641	2505.854492
1807.089844	2500.136963
1806.122070	2432.384521
1805.155273	2460.281982
1804.187500	2547.593750
1803.219727	2420.461670
1802.251953	2368.281494
1801.283203	2530.436523
1800.315430	2416.298828
1799.346680	2454.487061
1798.377930	2526.203857
1797.408203	2494.696289
1796.439453	2602.482666
1795.469727	2493.611084
1794.500000	2472.443604
1793.530273	2544.078613
1792.559570	2558.987793
1791.589844	2527.514160
1790.619141	2532.116943
1789.648438	2467.183350
1788.677734	2613.410400
1787.706055	2628.288574
1786.735352	2540.213379
1785.763672	2555.100830
1784.791992	2572.554443
1783.819336	2515.412354
1782.847656	2561.152832
1781.875000	2537.459717
1780.902344	2696.269775
1779.929688	2610.883301
1778.956055	2535.810547
1777.983398	2584.065674
1777.009766	2609.187012
1776.036133	2539.298584
1775.061523	2554.150635
1774.087891	2594.660889
1773.113281	2560.743164
1772.138672	2606.364990
1771.164063	2669.920410
1770.189453	2574.467285
1769.213867	2512.382813
1768.238281	2645.121094
1767.262695	2531.797363
1766.287109	2585.052246
1765.311523	2643.406982
1764.334961	2594.179199
1763.358398	2634.584473
1762.381836	2646.814697
1761.405273	2661.598877
1760.427734	2686.611084
1759.451172	2645.101563
1758.473633	2734.046143
1757.496094	2710.443115
1756.517578	2651.060059
1755.540039	2762.948975
1754.561523	2701.024414
1753.583008	2636.572021
1752.603516	2750.946045
1751.625000	2735.031006
1750.645508	2790.611572
1749.666016	2874.247070
1748.686523	2725.608398
1747.707031	2717.366943
1746.726563	2885.146240
1745.747070	2830.966553
1744.766602	2820.157959
1743.786133	2918.974854
1742.804688	2831.688965
1741.824219	2889.689209
1740.842773	2945.116943
1739.861328	2967.407959
1738.878906	2928.571533
1737.897461	2971.224854
1736.915039	3036.769287
1735.932617	3107.375244
1734.950195	2992.210205
1733.967773	3085.689941
1732.984375	3151.153564
1732.000977	3254.730225
1731.017578	3129.463135
1730.034180	3133.875000
1729.050781	3267.882080
1728.066406	3295.127197
1727.082031	3261.400146
1726.097656	3344.503906
1725.113281	3237.151123
1724.127930	3401.452881
1723.143555	3306.823242
1722.158203	3351.786133
1721.172852	3417.023926
1720.186523	3314.842773
1719.201172	3364.846191
1718.214844	3283.001221
1717.228516	3338.059326
1716.242188	3195.437744
1715.254883	3283.426270
1714.267578	3343.514648
1713.281250	3276.956055
1712.292969	3306.637207
1711.305664	3204.676270
1710.318359	3282.445313
1709.330078	3317.166748
1708.341797	3281.041260
1707.353516	3262.635498
1706.364258	3226.536865
1705.375977	3369.948486
1704.386719	3465.275146
1703.397461	3371.034912
1702.407227	3380.420410
1701.417969	3410.009277
1700.427734	3452.212402
1699.437500	3388.353760
1698.447266	3528.991455
1697.457031	3641.807861
1696.465820	3504.775391
1695.475586	3524.208496
1694.483398	3626.864746
1693.492188	3658.871582
1692.500977	3678.259277
1691.508789	3743.008545
1690.516602	3724.569824
1689.524414	3852.267822
1688.532227	3780.916016
1687.539063	3699.520996
1686.546875	3799.446045
1685.553711	3816.257080
1684.560547	3916.114746
1683.566406	3907.730957
1682.573242	3894.319336
1681.579102	3792.882080
1680.584961	3950.495850
1679.589844	3932.055176
1678.595703	4001.597168
1677.600586	3945.457764
1676.605469	4112.954590
1675.610352	4114.590332
1674.615234	4040.882324
1673.619141	4004.869141
1672.624023	4106.940918
1671.627930	3892.731445
1670.630859	3987.255615
1669.634766	4019.020264
1668.637695	3993.082520
1667.640625	4160.247559
1666.643555	3951.268311
1665.646484	3962.960449
1664.649414	3949.586670
1663.651367	3951.251709
1662.653320	3895.300781
1661.655273	3864.418213
1660.656250	3973.769775
1659.658203	3902.828857
1658.659180	3779.357422
1657.660156	3878.647705
1656.661133	3797.764404
1655.661133	3934.527832
1654.661133	3756.137451
1653.662109	3830.345459
1652.661133	3914.520752
1651.661133	3761.239746
1650.660156	3755.442871
1649.660156	3834.583740
1648.659180	3766.334473
1647.657227	3892.882813
1646.656250	3799.684814
1645.654297	3891.228516
1644.653320	3900.383545
1643.650391	3999.351318
1642.648438	4033.423096
1641.646484	4107.381836
1640.643555	4091.549561
1639.640625	4105.637207
1638.637695	4049.935303
1637.633789	4091.434570
1636.630859	3898.742432
1635.626953	3850.591553
1634.623047	3884.635986
1633.619141	3921.155518
1632.614258	3808.313721
1631.609375	3854.787842
1630.604492	3789.280518
1629.599609	3686.488037
1628.594727	3655.861572
1627.588867	3757.030273
1626.583984	3669.225342
1625.578125	3588.913818
1624.571289	3563.303223
1623.565430	3584.906006
1622.558594	3546.887939
1621.551758	3506.402588
1620.544922	3535.451660
1619.538086	3499.950195
1618.530273	3491.762207
1617.523438	3525.757813
1616.515625	3552.296875
1615.506836	3549.062988
1614.499023	3578.065186
1613.490234	3589.701416
1612.481445	3531.933350
1611.472656	3528.706055
1610.463867	3686.517334
1609.455078	3688.212158
1608.445313	3746.864502
1607.435547	4038.228271
1606.425781	4109.158203
1605.415039	4318.650879
1604.405273	4406.811035
1603.394531	4648.311035
1602.383789	4533.553223
1601.373047	4342.187988
1600.361328	4286.877930
1599.349609	4095.645752
1598.337891	4020.641113
1597.326172	3851.782471
1596.314453	3813.913330
1595.301758	3771.120850
1594.289063	3713.531494
1593.276367	3702.869629
1592.263672	3588.553711
1591.250977	3602.597900
1590.237305	3582.097900
1589.223633	3576.405273
1588.209961	3518.929443
1587.196289	3493.528809
1586.181641	3628.358398
1585.166992	3580.765381
1584.152344	3587.397705
1583.137695	3574.320068
1582.122070	3603.115967
1581.107422	3489.085938
1580.091797	3616.358643
1579.076172	3499.912354
1578.059570	3666.500244
1577.043945	3441.843018
1576.027344	3443.572754
1575.010742	3479.729980
1573.994141	3530.623535
1572.976563	3561.830566
1571.959961	3541.414063
1570.942383	3506.263916
1569.924805	3532.542236
1568.906250	3563.721680
1567.888672	3499.122070
1566.870117	3429.639893
1565.851563	3595.817139
1564.833008	3592.600342
1563.814453	3555.036621
1562.794922	3492.959473
1561.775391	3563.338135
1560.755859	3452.247559
1559.736328	3471.125977
1558.715820	3607.636719
1557.695313	3501.507568
1556.674805	3554.660156
1555.654297	3524.514648
1554.633789	3531.113037
1553.612305	3496.088379
1552.590820	3527.166748
1551.569336	3494.604736
1550.547852	3520.776611
1549.525391	3466.213867
1548.502930	3624.445068
1547.480469	3569.883057
1546.458008	3530.011719
1545.435547	3331.291260
1544.412109	3418.552734
1543.388672	3500.890625
1542.365234	3590.521240
1541.341797	3514.056396
1540.317383	3391.235596
1539.293945	3444.217041
1538.269531	3533.782715
1537.244141	3457.394287
1536.219727	3459.099609
1535.194336	3433.975830
1534.168945	3447.876953
1533.143555	3549.535156
1532.118164	3570.717285
1531.092773	3545.590576
1530.066406	3483.929443
1529.040039	3519.726318
1528.013672	3548.201904
1526.986328	3496.318115
1525.958984	3493.140869
1524.932617	3480.229980
1523.904297	3440.559082
1522.876953	3542.000977
1521.849609	3509.629883
1520.821289	3508.884033
1519.792969	3478.964355
1518.764648	3546.282471
1517.735352	3460.474609
1516.706055	3561.781738
1515.677734	3422.567139
1514.647461	3504.410400
1513.618164	3527.945557
1512.587891	3459.224609
1511.558594	3596.828369
1510.528320	3508.709473
1509.497070	3653.521729
1508.466797	3611.511719
1507.435547	3615.593262
1506.404297	3631.794922
1505.373047	3565.576416
1504.341797	3669.023682
1503.309570	3578.596191
1502.277344	3665.039551
1501.245117	3596.447510
1500.212891	3719.169922
1499.180664	3764.373779
1498.147461	3782.934570
1497.114258	3823.265381
1496.081055	3849.063232
1495.046875	3811.961914
1494.013672	3864.351318
1492.979492	3909.464844
1491.945313	3966.645020
1490.911133	3970.633301
1489.875977	3945.625244
1488.840820	3896.471191
1487.805664	4042.964844
1486.770508	3957.590820
1485.735352	4084.695557
1484.699219	4004.175537
1483.663086	4020.213379
1482.626953	4144.810059
1481.590820	4112.569336
1480.553711	4099.634277
1479.516602	4183.145996
1478.479492	4206.358887
1477.442383	4258.481445
1476.405273	4327.448242
1475.367188	4331.342285
1474.329102	4397.854980
1473.291016	4442.666992
1472.252930	4501.904297
1471.213867	4645.358398
1470.174805	4589.019043
1469.135742	4782.916504
1468.096680	4714.543945
1467.056641	4990.096680
1466.017578	4916.899902
1464.977539	4995.175781
1463.936523	5054.191406
1462.896484	5139.612305
1461.855469	5229.800781
1460.814453	5329.557617
1459.773438	5287.596680
1458.732422	5329.679199
1457.690430	5273.333984
1456.649414	5432.987793
1455.607422	5525.395020
1454.564453	5485.833496
1453.522461	5479.863281
1452.479492	5488.280762
1451.436523	5647.715820
1450.393555	5440.395020
1449.350586	5563.829102
1448.306641	5483.582031
1447.262695	5456.061523
1446.218750	5296.849609
1445.174805	5250.227051
1444.129883	5347.238281
1443.085938	5252.763184
1442.041016	5124.832520
1440.995117	5221.807129
1439.950195	5113.069336
1438.904297	4963.730469
1437.858398	4900.513184
1436.812500	4944.871582
1435.766602	4922.305176
1434.719727	4909.304688
1433.672852	4755.390625
1432.625977	4816.456055
1431.579102	4648.302734
1430.532227	4723.686035
1429.484375	4746.535156
1428.436523	4790.847656
1427.388672	4763.579590
1426.339844	4793.559082
1425.291992	4699.540039
1424.243164	4824.873047
1423.193359	4759.486328
1422.144531	4801.353516
1421.095703	4695.500000
1420.045898	4749.270996
1418.996094	4652.999023
1417.945313	4559.148438
1416.895508	4703.362305
1415.844727	4768.982422
1414.793945	4796.506836
1413.743164	4826.397461
1412.691406	4754.012207
1411.640625	4871.872559
1410.588867	4797.130859
1409.537109	4836.500488
1408.484375	4799.815918
1407.432617	4896.182617
1406.379883	4876.126465
1405.327148	4863.201660
1404.274414	4883.520020
1403.220703	4820.753418
1402.166992	4881.413574
1401.113281	4809.183594
1400.059570	4874.562988
1399.005859	4942.285645
1397.951172	4915.137207
1396.896484	4677.024414
1395.841797	4889.314453
1394.786133	4670.265625
1393.731445	4870.619629
1392.675781	4860.093262
1391.620117	4776.164551
1390.563477	4794.071289
1389.507813	4785.934082
1388.451172	4848.792480
1387.394531	4779.132324
1386.337891	4894.002441
1385.280273	4866.929688
1384.222656	4726.378418
1383.165039	4810.454102
1382.107422	4795.232422
1381.049805	4756.388672
1379.991211	4764.807617
1378.932617	4629.151855
1377.874023	4656.484375
1376.815430	4695.608398
1375.755859	4581.296875
1374.696289	4627.499023
1373.636719	4690.194824
1372.577148	4703.330078
1371.516602	4490.068848
1370.456055	4507.956055
1369.395508	4495.191406
1368.334961	4480.075195
1367.274414	4644.034668
1366.212891	4626.536133
1365.151367	4677.344727
1364.089844	4466.764648
1363.027344	4642.353516
1361.965820	4526.016602
1360.903320	4529.738770
1359.839844	4547.574219
1358.777344	4471.317871
1357.713867	4460.938477
1356.651367	4434.105957
1355.586914	4421.387695
1354.523438	4443.925293
1353.459961	4607.424316
1352.395508	4561.789063
1351.331055	4640.644043
1350.265625	4580.933105
1349.201172	4504.814941
1348.135742	4628.221680
1347.070313	4617.826172
1346.004883	4579.283691
1344.938477	4575.938965
1343.873047	4598.389160
1342.806641	4641.929199
1341.739258	4603.413086
1340.672852	4532.105957
1339.605469	4568.601563
1338.538086	4670.666992
1337.470703	4547.869629
1336.403320	4476.635254
1335.334961	4480.337891
1334.266602	4741.472656
1333.198242	4588.348145
1332.129883	4587.343750
1331.060547	4689.245605
1329.992188	4508.172363
1328.921875	4572.642090
1327.852539	4531.907227
1326.783203	4629.056641
1325.712891	4578.980957
1324.642578	4746.147949
1323.572266	4684.391602
1322.500977	4639.005371
1321.429688	4771.034668
1320.358398	4653.304688
1319.287109	4761.940918
1318.215820	4644.263672
1317.143555	4687.553711
1316.071289	4628.233398
1314.999023	4676.169434
1313.925781	4724.083496
1312.853516	4704.404297
1311.780273	4684.732910
1310.706055	4665.069824
1309.632813	4654.729004
1308.558594	4718.888672
1307.485352	4685.264648
1306.410156	4805.236328
1305.335938	4687.853516
1304.260742	4696.124512
1303.186523	4783.456543
1302.110352	4900.973633
1301.035156	4844.106445
1299.958984	4938.318359
1298.883789	4814.087891
1297.807617	4924.523926
1296.730469	4874.666504
1295.654297	4936.280273
1294.577148	4840.014648
1293.500000	4878.398926
1292.422852	4884.281738
1291.344727	4839.125000
1290.266602	4868.205566
1289.188477	4850.896973
1288.110352	4977.328613
1287.031250	4915.964844
1285.953125	5026.104004
1284.874023	4916.104492
1283.793945	5063.253418
1282.714844	5096.866699
1281.634766	4991.553223
1280.554688	5052.942383
1279.474609	5077.277344
1278.393555	5066.895996
1277.313477	5093.529297
1276.232422	5157.151855
1275.151367	5139.821777
1274.069336	5147.926270
1272.987305	5098.249512
1271.905273	5189.539063
1270.823242	5246.136719
1269.741211	5251.898438
1268.658203	5248.420898
1267.575195	5307.273926
1266.492188	5324.556641
1265.409180	5334.908203
1264.325195	5229.906250
1263.241211	5330.224609
1262.157227	5342.872559
1261.072266	5263.296387
1259.988281	5301.306152
1258.903320	5479.866699
1257.818359	5384.184570
1256.732422	5558.038574
1255.647461	5446.260254
1254.561523	5415.113281
1253.474609	5457.638184
1252.388672	5578.387695
1251.301758	5547.229980
1250.214844	5587.394531
1249.127930	5593.043945
1248.041016	5488.325684
1246.953125	5590.540039
1245.865234	5561.709473
1244.777344	5505.318359
1243.689453	5607.458496
1242.600586	5392.610352
1241.511719	5320.219727
1240.422852	5495.791504
1239.333984	5407.343262
1238.244141	5403.834961
1237.154297	5324.622070
1236.064453	5332.600098
1234.974609	5301.592285
1233.883789	5266.012207
1232.792969	5338.173828
1231.702148	5261.352539
1230.610352	5278.497070
1229.519531	5137.588867
1228.427734	5193.681641
1227.335938	5151.301758
1226.243164	5223.387695
1225.151367	5165.000000
1224.058594	5063.166992
1222.965820	4984.253418
1221.872070	5005.998047
1220.778320	5014.014160
1219.685547	4878.016602
1218.590820	4806.069824
1217.497070	4935.218750
1216.402344	4833.594238
1215.307617	4843.920410
1214.212891	4906.756836
1213.118164	4978.695313
1212.022461	4861.174805
1210.926758	5042.612305
1209.831055	4934.253418
1208.734375	5008.398926
1207.638672	5066.548340
1206.541992	4974.213867
1205.444336	5000.435547
1204.347656	4997.022949
1203.250000	5100.682129
1202.152344	5022.085938
1201.054688	5057.378906
1199.956055	5017.528809
1198.858398	5009.560547
1197.759766	4987.942383
1196.660156	4979.982910
1195.561523	4953.831055
1194.461914	5045.936523
1193.362305	4876.552246
1192.262695	5000.453125
1191.162109	5028.855957
1190.061523	4920.930664
1188.960938	4965.236328
1187.860352	5098.084961
1186.758789	4962.971680
1185.658203	5036.743652
1184.555664	5001.554199
1183.454102	5063.937988
1182.351563	5017.415527
1181.250000	5147.798828
1180.146484	5137.552734
1179.043945	5091.043457
1177.940430	5092.145020
1176.837891	5097.776855
1175.733398	4933.518066
1174.629883	5104.500977
1173.525391	5087.482422
1172.420898	5088.580078
1171.316406	4985.574219
1170.211914	5027.419434
1169.106445	5202.705566
1168.000977	5201.511230
1166.895508	5121.181641
1165.789063	5142.609863
1164.682617	5182.107422
1163.576172	5271.293945
1162.469727	5195.537109
1161.363281	5246.285156
1160.255859	5344.424805
1159.148438	5426.717285
1158.040039	5357.761719
1156.932617	5291.093750
1155.824219	5307.920410
1154.715820	5297.675293
1153.607422	5240.083984
1152.498047	5270.434082
1151.388672	5179.068359
1150.279297	5234.202148
1149.168945	5077.557617
1148.059570	5202.505371
1146.949219	5167.527832
1145.838867	5224.861816
1144.727539	5201.146973
1143.616211	5211.193359
1142.504883	5171.743652
1141.393555	5226.771484
1140.282227	5178.341309
1139.169922	5096.212891
1138.057617	5142.228027
1136.944336	5132.046875
1135.832031	5054.477051
1134.718750	5080.253906
1133.605469	5110.509277
1132.491211	5116.056152
1131.377930	5184.441895
1130.263672	5154.065918
1129.149414	5202.219727
1128.034180	5266.049316
1126.919922	5244.642578
1125.804688	5310.672852
1124.688477	5336.330078
1123.573242	5247.698730
1122.457031	5221.833008
1121.340820	5352.753906
1120.224609	5320.156738
1119.107422	5139.826172
1117.990234	5060.292969
1116.873047	5278.390625
1115.755859	5312.948730
1114.637695	5425.768066
1113.519531	5330.587402
1112.401367	5257.804688
1111.283203	5357.145508
1110.164063	5291.092285
1109.044922	5318.893066
1107.925781	5342.212891
1106.805664	5354.356934
1105.685547	5478.110352
1104.565430	5447.811035
1103.445313	5361.743164
1102.324219	5485.405273
1101.204102	5497.497070
1100.082031	5467.218262
1098.960938	5423.578125
1097.838867	5538.191406
1096.716797	5525.746582
1095.594727	5582.362793
1094.472656	5690.173828
1093.349609	5746.722656
1092.226563	5827.730469
1091.103516	5719.531738
1089.979492	5796.055664
1088.855469	5752.422363
1087.731445	5788.870117
1086.607422	5876.437988
1085.482422	5963.963379
1084.357422	5791.432129
1083.232422	5798.949219
1082.106445	5970.836914
1080.981445	6102.668945
1079.855469	6278.842285
1078.728516	6181.906250
1077.602539	6144.933594
1076.475586	6380.872559
1075.348633	6417.066406
1074.220703	6446.589355
1073.093750	6589.167969
1071.965820	6532.188477
1070.837891	6577.171875
1069.708984	6455.970703
1068.580078	6500.948730
1067.451172	6441.825684
1066.322266	6256.536133
1065.192383	6390.062500
1064.062500	6246.916016
1062.932617	6212.241211
1061.802734	6184.217285
1060.671875	5941.711914
1059.541016	5997.772461
1058.410156	6100.220215
1057.278320	6010.374512
1056.147461	5955.917480
1055.015625	5879.398926
1053.882813	5897.865234
1052.750977	5986.963867
1051.618164	5886.212891
1050.484375	5937.758789
1049.351563	5951.777344
1048.217773	5979.020996
1047.083984	6059.168945
1045.950195	6059.918945
1044.815430	6270.036133
1043.680664	6173.785645
1042.545898	6330.904785
1041.411133	6426.283203
1040.275391	6444.553223
1039.139648	6542.057617
1038.003906	6487.665527
1036.867188	6607.111816
1035.730469	6605.519531
1034.593750	6672.099121
1033.457031	6765.028809
1032.319336	6956.824219
1031.181641	6880.429199
1030.043945	6764.523926
1028.906250	6806.818359
1027.767578	6640.478027
1026.628906	6678.389160
1025.489258	6621.901367
1024.350586	6541.302246
1023.210938	6421.252930
1022.071289	6461.369141
1020.930664	6264.648926
1019.790039	6166.672363
1018.649414	6149.834473
1017.508789	6003.726563
1016.367188	6006.649414
1015.225586	6027.090820
1014.083984	6132.913086
1012.942383	6122.665527
1011.799805	5976.736328
1010.657227	6145.941406
1009.514648	6282.251465
1008.371094	6521.277832
1007.227539	6775.490723
1006.083984	7409.910645
1004.939453	8369.625977
1003.795898	9193.417969
1002.651367	9136.567383
1001.505859	8402.801758
1000.361328	7660.661621
999.215820	7174.248047
998.070313	6788.446777
996.923828	6501.002930
995.777344	6715.331055
994.630859	6630.827637
993.484375	6596.502930
992.336914	6592.706055
991.189453	6628.129395
990.041992	6606.897461
988.894531	6731.587402
987.746094	6588.411133
986.597656	6595.498535
985.448242	6652.633789
984.299805	6648.821289
983.150391	6599.332031
982.000977	6754.277344
980.850586	6746.090820
979.700195	6831.368652
978.549805	6801.435059
977.399414	7051.760742
976.248047	7317.165039
975.096680	7643.235352
973.945313	7977.826660
972.792969	8505.407227
971.640625	9011.028320
970.488281	9614.013672
969.335938	10080.070313
968.182617	11267.889648
967.029297	12062.780273
965.875977	13134.660156
964.721680	13896.191406
963.567383	14869.610352
962.413086	15543.708984
961.258789	16087.575195
960.103516	16161.495117
958.948242	15796.113281
957.791992	15320.582031
956.636719	14397.589844
955.480469	13457.756836
954.323242	12708.619141
953.166992	11936.079102
952.009766	11083.979492
950.852539	10638.398438
949.694336	9990.040039
948.537109	9506.087891
947.378906	9072.020508
946.219727	8825.907227
945.061523	8411.639648
943.902344	8129.145508
942.743164	7786.414551
941.583008	7609.847656
940.422852	7364.400879
939.262695	7351.781250
938.102539	7140.985352
936.941406	7007.823730
935.780273	6986.687012
934.619141	6821.340332
933.457031	6673.291504
932.294922	6682.371094
931.132813	6667.784668
929.970703	6565.040039
928.807617	6455.895996
927.644531	6518.748047
926.480469	6437.602051
925.317383	6427.386230
924.153320	6442.945801
922.988281	6462.790527
921.824219	6424.666992
920.659180	6644.083984
919.494141	6337.746094
918.328125	6398.346680
917.162109	6285.219238
915.996094	6525.883301
914.830078	6380.628418
913.663086	6312.585938
912.496094	6295.990234
911.329102	6320.093262
910.161133	6207.149902
908.993164	6137.075195
907.825195	6274.619141
906.656250	6183.165039
905.487305	6149.508301
904.318359	6160.774414
903.149414	6240.445313
901.979492	6176.873535
900.809570	6194.530762
899.639648	6124.591797
898.468750	6146.522461
897.297852	6189.791992
896.126953	6002.501465
894.955078	6137.547852
893.783203	6067.707031
892.611328	6125.878418
891.439453	6145.635254
890.266602	6048.127930
889.093750	6244.792969
887.919922	6138.784668
886.746094	6135.080566
885.572266	6212.305664
884.398438	6172.387207
883.223633	6179.316895
882.048828	6162.833008
880.874023	6393.146973
879.698242	6300.044434
878.523438	6391.985352
877.346680	6292.550781
876.170898	6363.190918
874.994141	6276.561035
873.817383	6177.229004
872.639648	6400.745117
871.462891	6312.045410
870.285156	6340.131836
869.106445	6068.996582
867.927734	6466.266113
866.749023	6369.152344
865.570313	6246.643066
864.390625	6353.137695
863.210938	6328.180176
862.031250	6371.034180
860.851563	6430.810059
859.670898	6446.083008
858.490234	6484.635254
857.308594	6586.661621
856.126953	6678.054199
854.945313	6574.777832
853.763672	6549.804199
852.581055	6560.786621
851.398438	6556.964844
850.214844	6538.351563
849.032227	6471.154785
847.847656	6507.485840
846.664063	6455.110840
845.479492	6371.095703
844.294922	6576.259766
843.110352	6458.495605
841.924805	6359.775879
840.740234	6332.807129
839.553711	6442.888672
838.368164	6367.431641
837.181641	6393.157227
835.995117	6467.320313
834.807617	6362.427246
833.620117	6331.281250
832.432617	6378.033691
831.245117	6334.270508
830.056641	6229.517578
828.868164	6240.500000
827.678711	6266.194336
826.489258	6254.034668
825.299805	6220.863281
824.110352	6183.506348
822.919922	6303.707520
821.729492	6423.844238
820.539063	6577.507324
819.347656	6691.208984
818.156250	6953.830078
816.964844	7247.777832
815.772461	7308.777832
814.580078	7594.086426
813.387695	7745.091797
812.194336	7537.677734
811.000977	7449.786133
809.807617	7156.684570
808.613281	7001.933594
807.418945	6845.169434
806.224609	6502.230957
805.029297	6320.573730
803.833984	6251.960938
802.638672	6164.563477
801.443359	6079.301758
800.247070	6012.893555
799.050781	6019.649902
797.853516	5938.668945
796.656250	5941.262207
795.458984	5795.622070
794.260742	5729.371582
793.063477	5763.314941
791.864258	5884.854492
790.666016	5760.234863
789.466797	5823.328613
788.267578	5794.672852
787.067383	5818.127441
785.868164	5704.070801
784.666992	5760.858887
783.466797	5688.520020
782.265625	5830.625488
781.064453	5700.034180
779.863281	5842.058105
778.661133	5730.250977
777.458984	5633.058594
776.255859	5808.243652
775.052734	5615.479492
773.849609	5690.842773
772.646484	5608.300293
771.442383	5590.175781
770.238281	5596.972168
769.033203	5649.423828
767.829102	5728.819824
766.623047	5700.305664
765.417969	5532.861816
764.211914	5593.562012
763.005859	5660.446289
761.799805	5642.336914
760.592773	5707.098145
759.385742	5684.841309
758.177734	5515.595703
756.969727	5667.268555
755.761719	5547.780273
754.553711	5647.641602
753.344727	5664.720215
752.135742	5576.340332
750.925781	5616.164551
749.716797	5645.632813
748.505859	5565.590332
747.295898	5632.230957
746.084961	5585.269531
744.874023	5587.874512
743.662109	5520.312012
742.451172	5564.192871
741.238281	5601.861328
740.026367	5641.569336
738.813477	5625.596191
737.600586	5591.083496
736.386719	5628.697754
735.172852	5645.693359
733.958984	5685.329102
732.745117	5512.906738
731.530273	5484.639648
730.314453	5581.892090
729.099609	5681.146484
727.883789	5539.754883
726.667969	5657.465820
725.451172	5536.707520
724.234375	5633.805664
