#Wave		#Intensity
1819.687500	2465.246582
1818.722656	2607.821289
1817.757813	2609.842529
1816.792969	2541.902344
1815.828125	2528.393799
1814.863281	2618.491211
1813.897461	2542.825439
1812.931641	2619.935791
1811.965820	2552.067871
1811.000000	2688.660645
1810.033203	2587.174072
1809.067383	2651.274658
1808.100586	2596.389160
1807.132813	2557.040527
1806.166016	2571.992432
1805.199219	2571.431641
1804.231445	2632.882080
1803.263672	2603.892822
1802.295898	2693.718994
1801.327148	2620.833252
1800.358398	2555.724121
1799.390625	2583.558594
1798.420898	2619.122070
1797.452148	2724.326172
1796.483398	2607.665283
1795.513672	2692.196289
1794.543945	2647.781982
1793.574219	2587.921387
1792.603516	2718.788330
1791.633789	2656.361816
1790.663086	2650.633057
1789.692383	2680.961670
1788.721680	2618.584229
1787.750000	2710.688721
1786.779297	2648.331787
1785.807617	2717.231934
1784.835938	2742.368164
1783.863281	2680.044922
1782.891602	2602.319824
1781.918945	2583.759277
1780.946289	2778.545654
1779.973633	2808.781006
1779.000000	2718.249512
1778.027344	2725.366699
1777.053711	2722.208252
1776.080078	2716.483887
1775.106445	2751.833984
1774.131836	2756.371338
1773.157227	2648.007080
1772.182617	2716.698730
1771.208008	2834.091309
1770.233398	2756.551514
1769.257813	2804.665527
1768.283203	2745.107422
1767.307617	2731.701416
1766.331055	2759.293213
1765.355469	2740.767090
1764.378906	2719.687744
1763.403320	2834.316650
1762.425781	2815.786133
1761.449219	2797.263672
1760.472656	2778.749268
1759.495117	2698.846924
1758.517578	2810.799072
1757.540039	2784.622559
1756.561523	2778.909180
1755.583984	2826.872803
1754.605469	2767.489502
1753.626953	2766.893066
1752.648438	2848.034424
1751.668945	2801.453369
1750.690430	2777.871338
1749.710938	2784.931152
1748.731445	2914.488281
1747.750977	2921.515381
1746.771484	2890.274658
1745.791016	2879.451172
1744.810547	2883.931396
1743.830078	2883.311035
1742.849609	2849.556641
1741.868164	2902.457031
1740.886719	3013.931885
1739.905273	2975.076904
1738.923828	2895.492676
1737.941406	2999.258789
1736.959961	2993.523438
1735.977539	3061.594482
1734.995117	3066.025879
1734.011719	2986.507324
1733.029297	3062.166016
1732.045898	3160.677246
1731.062500	3167.625488
1730.079102	3144.070557
1729.094727	3105.278809
1728.111328	3239.264404
1727.126953	3213.169189
1726.142578	3240.414795
1725.158203	3348.895508
1724.172852	3302.485840
1723.187500	3360.149170
1722.202148	3321.369141
1721.216797	3361.246094
1720.231445	3429.004395
1719.245117	3425.734131
1718.258789	3468.098145
1717.272461	3429.336182
1716.286133	3499.555908
1715.299805	3389.864990
1714.312500	3401.804199
1713.325195	3345.362305
1712.337891	3415.539795
1711.350586	3366.713135
1710.362305	3393.831787
1709.375000	3339.969971
1708.386719	3478.391357
1707.397461	3422.005127
1706.409180	3479.432373
1705.419922	3516.610352
1704.431641	3493.110352
1703.442383	3487.309814
1702.452148	3468.879150
1701.462891	3602.013428
1700.472656	3570.938965
1699.482422	3623.198486
1698.492188	3683.008789
1697.501953	3598.936768
1696.510742	3628.447510
1695.519531	3763.899658
1694.528320	3760.573975
1693.537109	3832.898926
1692.545898	3706.025391
1691.553711	3763.207520
1690.561523	3843.045654
1689.569336	3776.718750
1688.577148	3803.621582
1687.583984	3875.844238
1686.591797	3897.678711
1685.598633	3919.503418
1684.605469	4039.474365
1683.611328	4041.129395
1682.618164	4007.563232
1681.624023	3981.557129
1680.629883	3960.591064
1679.634766	3962.261230
1678.640625	4024.256592
1677.645508	4068.634033
1676.650391	4140.630371
1675.655273	3999.076904
1674.660156	4186.583984
1673.664063	4070.189941
1672.668945	4046.729736
1671.672852	4033.318848
1670.675781	4185.527832
1669.679688	4001.496094
1668.682617	4003.152588
1667.686523	4120.162598
1666.688477	4049.084717
1665.691406	4028.169922
1664.694336	4002.251465
1663.696289	4008.916504
1662.698242	3985.518311
1661.700195	4012.219971
1660.701172	3853.615967
1659.703125	4025.533691
1658.704102	3889.520264
1657.705078	3963.764404
1656.706055	3927.895508
1655.706055	3949.572021
1654.707031	3903.718262
1653.707031	3912.889160
1652.707031	3894.559326
1651.706055	3901.229004
1650.706055	3992.849854
1649.705078	4004.491699
1648.704102	3961.181641
1647.703125	4012.778076
1646.701172	4101.800293
1645.700195	4046.016602
1644.698242	4144.975586
1643.696289	4383.609375
1642.694336	4442.543945
1641.691406	4404.191895
1640.688477	4525.430176
1639.685547	4624.182129
1638.682617	4628.184082
1637.679688	4495.137695
1636.675781	4479.235840
1635.671875	4396.091309
1634.667969	4218.355469
1633.664063	4187.583984
1632.660156	4136.912598
1631.655273	3996.673096
1630.650391	3948.551514
1629.645508	3810.898926
1628.639648	3785.219727
1627.634766	3781.929932
1626.628906	3813.444336
1625.623047	3673.451416
1624.617188	3732.309082
1623.610352	3811.016602
1622.604492	3663.661377
1621.597656	3571.001221
1620.590820	3672.037598
1619.583008	3715.938965
1618.576172	3682.887939
1617.568359	3654.813232
1616.560547	3654.037842
1615.552734	3559.016602
1614.544922	3687.202148
1613.536133	3577.339355
1612.527344	3601.366211
1611.518555	3560.953369
1610.509766	3617.180908
1609.500000	3571.827637
1608.491211	3727.087646
1607.481445	3629.735107
1606.470703	3737.883545
1605.460938	3828.661865
1604.450195	3837.747070
1603.440430	3916.096191
1602.429688	3853.432373
1601.417969	3877.343018
1600.407227	3814.713867
1599.395508	3771.885254
1598.383789	3600.570801
1597.372070	3666.516113
1596.360352	3618.805176
1595.347656	3561.235596
1594.334961	3678.998291
1593.322266	3596.754150
1592.309570	3645.353027
1591.296875	3503.929199
1590.283203	3656.142090
1589.269531	3576.438477
1588.255859	3644.727539
1587.241211	3533.008789
1586.227539	3620.997314
1585.212891	3620.229492
1584.198242	3636.708984
1583.183594	3539.866211
1582.167969	3632.703857
1581.153320	3629.470947
1580.137695	3552.385254
1579.122070	3581.167236
1578.105469	3703.445801
1577.089844	3537.824463
1576.073242	3674.818359
1575.056641	3605.181396
1574.040039	3545.408691
1573.022461	3552.031006
1572.005859	3676.616943
1570.988281	3641.437500
1569.970703	3527.662109
1568.953125	3573.579102
1567.934570	3599.832275
1566.916016	3491.047363
1565.897461	3556.578613
1564.878906	3641.713623
1563.860352	3731.719238
1562.840820	3637.715820
1561.821289	3636.944092
1560.801758	3594.490234
1559.782227	3598.630371
1558.761719	3575.809082
1557.741211	3594.653076
1556.720703	3628.187988
1555.700195	3431.473877
1554.679688	3695.214355
1553.658203	3596.499756
1552.636719	3654.482422
1551.615234	3565.606934
1550.593750	3638.251465
1549.571289	3630.140625
1548.549805	3710.077393
1547.527344	3662.832031
1546.504883	3691.390137
1545.481445	3627.059814
1544.458008	3662.943848
1543.435547	3540.012451
1542.412109	3595.439697
1541.387695	3677.705566
1540.364258	3764.819580
1539.339844	3712.759277
1538.315430	3594.827881
1537.291016	3664.823486
1536.265625	3551.830811
1535.241211	3585.221436
1534.215820	3628.351318
1533.190430	3669.024902
1532.164063	3599.999023
1531.138672	3643.097900
1530.112305	3688.614258
1529.085938	3641.550293
1528.059570	3650.517822
1527.033203	3630.263916
1526.005859	3658.703857
1524.978516	3567.877686
1523.951172	3635.250000
1522.923828	3683.131592
1521.895508	3643.433594
1520.867188	3649.954346
1519.838867	3644.316162
1518.810547	3728.614258
1517.782227	3686.509277
1516.752930	3666.288574
1515.723633	3592.635986
1514.694336	3669.586670
1513.665039	3758.644775
1512.634766	3692.301514
1511.604492	3655.110840
1510.574219	3753.820557
1509.543945	3670.537842
1508.513672	3805.584229
1507.482422	3790.224609
1506.451172	3658.497803
1505.419922	3730.437500
1504.388672	3700.562500
1503.356445	3770.039063
1502.324219	3737.745605
1501.291992	3877.418457
1500.259766	3762.789307
1499.226563	3764.408936
1498.194336	3753.926025
1497.161133	3878.957031
1496.127930	3824.906250
1495.093750	3925.680420
1494.060547	3881.315430
1493.026367	3870.817627
1491.992188	3896.582520
1490.957031	4067.339355
1489.922852	3890.089600
1488.887695	3932.742920
1487.852539	3924.659180
1486.817383	3940.725342
1485.782227	3964.026611
1484.746094	3994.558594
1483.709961	4041.969238
1482.673828	4137.611328
1481.637695	4184.970703
1480.600586	4065.910889
1479.563477	4209.707031
1478.526367	4261.840820
1477.489258	4200.680664
1476.452148	4228.698730
1475.414063	4314.520020
1474.375977	4260.612305
1473.337891	4331.941895
1472.299805	4444.167969
1471.260742	4479.322754
1470.221680	4435.050781
1469.182617	4482.221680
1468.143555	4536.588379
1467.103516	4720.795898
1466.064453	4758.257324
1465.024414	4853.395020
1463.983398	4792.273926
1462.943359	4853.723145
1461.902344	4903.134766
1460.862305	4830.032227
1459.820313	4886.630371
1458.779297	4967.211914
1457.738281	4992.552246
1456.696289	4953.088379
1455.654297	4973.622070
1454.612305	5130.873535
1453.569336	5115.386230
1452.526367	5119.086914
1451.483398	5019.706543
1450.440430	5088.135254
1449.397461	5180.496094
1448.353516	5062.000000
1447.310547	5127.979492
1446.265625	5031.096191
1445.221680	5022.836426
1444.177734	4892.505859
1443.132813	4994.359863
1442.087891	4921.512207
1441.042969	4999.395020
1439.997070	4888.312500
1438.952148	4868.135742
1437.906250	4847.967773
1436.860352	4799.127930
1435.813477	4836.330078
1434.767578	4696.731445
1433.720703	4655.119629
1432.673828	4553.826660
1431.625977	4717.582520
1430.579102	4494.584961
1429.531250	4550.894043
1428.483398	4676.369629
1427.435547	4565.637207
1426.387695	4581.350098
1425.338867	4675.740234
1424.290039	4748.634766
1423.241211	4671.347168
1422.192383	4586.943848
1421.142578	4519.252930
1420.092773	4565.916992
1419.042969	4619.704590
1417.993164	4613.949219
1416.942383	4612.956543
1415.892578	4597.685059
1414.841797	4587.178711
1413.790039	4797.897949
1412.739258	4687.466797
1411.687500	4700.723633
1410.635742	4759.140625
1409.583984	4765.245605
1408.532227	4816.494629
1407.479492	4893.853027
1406.427734	4973.553223
1405.374023	4984.354004
1404.321289	5061.625000
1403.268555	4958.468262
1402.214844	4902.817383
1401.161133	4989.545410
1400.107422	4805.818848
1399.052734	4864.070801
1397.999023	4780.033691
1396.944336	4748.184570
1395.888672	4704.499023
1394.833984	4679.787598
1393.778320	4657.455566
1392.723633	4639.869629
1391.666992	4560.723633
1390.611328	4524.225586
1389.555664	4617.925293
1388.499023	4600.361816
1387.442383	4625.391602
1386.384766	4690.622559
1385.328125	4680.147949
1384.270508	4563.279785
1383.212891	4588.294922
1382.155273	4610.935059
1381.097656	4687.910645
1380.039063	4616.024902
1378.980469	4643.366699
1377.921875	4725.006348
1376.863281	4735.786621
1375.803711	4593.141602
1374.744141	4544.950195
1373.684570	4475.545410
1372.625000	4472.215332
1371.564453	4506.619141
1370.503906	4529.218262
1369.443359	4429.231445
1368.382813	4539.035156
1367.322266	4427.308105
1366.260742	4426.346191
1365.199219	4451.291504
1364.137695	4377.329590
1363.075195	4524.689941
1362.013672	4415.438477
1360.951172	4475.659668
1359.888672	4462.922852
1358.825195	4567.796875
1357.762695	4540.935059
1356.699219	4570.510742
1355.635742	4569.515625
1354.571289	4540.319824
1353.507813	4511.136230
1352.443359	4528.945801
1351.378906	4556.141113
1350.314453	4576.280273
1349.249023	4563.544922
1348.183594	4564.896973
1347.118164	4589.712402
1346.052734	4607.478516
1344.987305	4601.782227
1343.920898	4544.499023
1342.854492	4716.994629
1341.788086	4760.499023
1340.720703	4736.024902
1339.654297	4727.961426
1338.586914	4766.749023
1337.519531	4793.809082
1336.451172	4694.423828
1335.383789	4730.850586
1334.315430	4666.626953
1333.247070	4798.975586
1332.177734	4706.691895
1331.109375	4668.240723
1330.040039	4667.218750
1328.970703	4855.556152
1327.901367	4842.805664
1326.831055	4766.968262
1325.760742	4749.569824
1324.690430	4769.549805
1323.620117	4836.225098
1322.548828	4629.710449
1321.478516	4670.709961
1320.407227	4653.349121
1319.334961	4680.325195
1318.263672	4781.934082
1317.191406	4797.208496
1316.119141	4653.925293
1315.046875	4757.802734
1313.974609	4672.854980
1312.901367	4634.545898
1311.828125	4817.562988
1310.754883	4767.592773
1309.681641	4699.015625
1308.607422	4819.039063
1307.533203	4734.187012
1306.458984	4684.277344
1305.384766	4778.631836
1304.309570	4731.058594
1303.234375	4790.478027
1302.159180	4875.445313
1301.083984	4786.041016
1300.007813	4796.604980
1298.931641	4707.256348
1297.855469	4824.685547
1296.779297	4765.560547
1295.702148	4678.598145
1294.625977	4816.846680
1293.548828	4901.653809
1292.470703	4833.280273
1291.393555	4971.401855
1290.315430	4856.655273
1289.237305	4860.218750
1288.159180	4866.097656
1287.080078	4848.795898
1286.000977	4910.288574
1284.921875	4895.300293
1283.842773	4889.583496
1282.763672	5004.286133
1281.683594	5072.632813
1280.603516	4916.423340
1279.523438	5024.099609
1278.442383	4992.906738
1277.362305	4982.545898
1276.281250	5113.260742
1275.199219	5001.142578
1274.118164	5205.765625
1273.036133	5169.942383
1271.954102	5083.301270
1270.872070	5139.922852
1269.790039	5168.803711
1268.707031	5218.453125
1267.624023	5124.950195
1266.541016	5206.897949
1265.458008	5221.891113
1264.374023	5181.508789
1263.290039	5208.032227
1262.206055	5276.050293
1261.121094	5323.288574
1260.037109	5229.903809
1258.952148	5189.561523
1257.867188	5209.138672
1256.781250	5242.526855
1255.696289	5427.889160
1254.610352	5329.977539
1253.524414	5439.275391
1252.437500	5463.374023
1251.351563	5429.940918
1250.264648	5467.832031
1249.176758	5544.801270
1248.089844	5437.793457
1247.001953	5411.290039
1245.915039	5511.201172
1244.826172	5395.079590
1243.738281	5398.464844
1242.649414	5314.573730
1241.561523	5324.862793
1240.471680	5431.564941
1239.382813	5242.143066
1238.292969	5279.975586
1237.203125	5345.319824
1236.113281	5307.421387
1235.023438	5386.487305
1233.932617	5353.180664
1232.841797	5381.773926
1231.750977	5192.656250
1230.660156	5125.048340
1229.568359	5220.096680
1228.476563	5168.541504
1227.384766	5117.008789
1226.292969	5118.145020
1225.200195	5007.145508
1224.107422	5044.911621
1223.014648	5004.887695
1221.921875	5028.915039
1220.828125	4927.178711
1219.734375	5012.930176
1218.640625	4865.534668
1217.545898	4919.271973
1216.452148	4927.297852
1215.357422	4944.454590
1214.262695	5020.968750
1213.166992	4953.632324
1212.071289	5052.931152
1210.976563	4944.545410
1209.879883	4906.926270
1208.784180	5149.851074
1207.687500	4927.504883
1206.590820	5049.490723
1205.494141	5011.879395
1204.396484	4983.398926
1203.299805	5071.115234
1202.202148	5054.020508
1201.104492	4877.536621
1200.005859	5063.108398
1198.907227	4964.087402
1197.808594	5008.469727
1196.709961	4907.229980
1195.610352	4976.623535
1194.511719	4895.901367
1193.412109	5010.733887
1192.311523	4893.672363
1191.211914	4965.275391
1190.111328	4966.416016
1189.010742	4958.469727
1187.910156	4916.462891
1186.808594	5001.615723
1185.707031	5005.013672
1184.605469	5031.103027
1183.503906	5007.266113
1182.401367	5076.439453
1181.298828	5113.831543
1180.196289	5019.704590
1179.093750	5077.492188
1177.990234	5053.667969
1176.886719	5000.400391
1175.783203	5076.271484
1174.679688	5100.020508
1173.575195	4942.625977
1172.470703	5088.628418
1171.366211	5051.251953
1170.261719	5077.244629
1169.156250	5082.865723
1168.050781	5190.253418
1166.945313	5191.322266
1165.838867	5203.692871
1164.732422	5200.237305
1163.625977	5061.213867
1162.519531	5197.845703
1161.413086	5359.256836
1160.305664	5069.010742
1159.198242	5117.506348
1158.089844	5235.941895
1156.982422	5133.199707
1155.874023	5269.622070
1154.765625	5198.492188
1153.657227	5098.082520
1152.547852	5008.989258
1151.438477	5104.744141
1150.329102	5153.136230
1149.219727	5086.617188
1148.109375	5098.954590
1146.999023	5138.305664
1145.888672	5040.317871
1144.777344	5039.151367
1143.666992	5112.238770
1142.555664	5171.793457
1141.443359	5071.636719
1140.332031	5108.686523
1139.219727	5181.686523
1138.107422	5229.929688
1136.995117	5107.379395
1135.881836	5081.482910
1134.768555	5154.418945
1133.655273	5130.767090
1132.541992	5232.839844
1131.427734	5218.157227
1130.313477	5284.258789
1129.199219	5179.836426
1128.084961	5210.029785
1126.969727	5134.821289
1125.854492	5126.899902
1124.739258	5264.661621
1123.623047	5178.287109
1122.507813	5246.525391
1121.390625	5281.135742
1120.274414	5270.946777
1119.158203	5287.624512
1118.041016	5214.770508
1116.923828	5265.015625
1115.805664	5353.267090
1114.688477	5300.574707
1113.570313	5216.602051
1112.452148	5409.868164
1111.333008	5205.219727
1110.214844	5496.711426
1109.095703	5450.745117
1107.975586	5476.267578
1106.856445	5550.900391
1105.736328	5578.618164
1104.616211	5465.717773
1103.496094	5605.005371
1102.375000	5512.227051
1101.253906	5702.732422
1100.132813	5580.986816
1099.011719	5461.526367
1097.889648	5749.968262
1096.767578	5788.721191
1095.645508	5863.096680
1094.522461	5734.770508
1093.400391	5800.215820
1092.277344	5974.705566
1091.153320	5882.049316
1090.030273	5985.235840
1088.906250	6059.454590
1087.782227	6258.178223
1086.657227	6250.028809
1085.533203	6306.346191
1084.408203	6284.853516
1083.283203	6352.243164
1082.157227	6481.796875
1081.031250	6593.522461
1079.905273	6536.453613
1078.779297	6688.065918
1077.653320	6892.866211
1076.526367	6951.135742
1075.399414	6882.941406
1074.271484	7036.541016
1073.144531	7119.119629
1072.016602	7057.580078
1070.887695	7035.957520
1069.759766	7067.517090
1068.630859	6968.375488
1067.501953	6889.210449
1066.373047	7022.620117
1065.243164	6961.184570
1064.113281	6764.791504
1062.983398	6754.328613
1061.853516	6597.889160
1060.722656	6527.764160
1059.591797	6265.333984
1058.460938	6414.134277
1057.329102	6282.228027
1056.198242	6276.307617
1055.066406	6318.979492
1053.933594	6204.852539
1052.801758	6002.475098
1051.668945	6215.123535
1050.535156	6297.483398
1049.402344	6216.557129
1048.268555	6237.121094
1047.134766	6109.941895
1046.000977	6335.531250
1044.866211	6296.543457
1043.732422	6394.182617
1042.596680	6452.122559
1041.461914	6516.640137
1040.326172	6548.099121
1039.190430	6513.504395
1038.054688	6531.742676
1036.918945	6602.775391
1035.782227	6790.354980
1034.645508	6782.120117
1033.507813	6705.731934
1032.371094	6833.799805
1031.233398	6608.000488
1030.094727	6667.920898
1028.957031	6626.772949
1027.818359	6513.177246
1026.679688	6469.889160
1025.541016	6567.093262
1024.401367	6436.036621
1023.261719	6430.090332
1022.122070	6472.397949
1020.982422	6369.961914
1019.841797	6370.609375
1018.701172	6415.088867
1017.559570	6446.399414
1016.418945	6381.305176
1015.277344	6487.069824
1014.135742	6347.550293
1012.993164	6321.926758
1011.850586	6329.142578
1010.708008	6161.316406
1009.565430	6319.499023
1008.421875	6344.202148
1007.279297	6432.296387
1006.134766	6758.603516
1004.991211	7001.708008
1003.846680	7200.997559
1002.702148	7221.081543
1001.557617	6981.293945
1000.412109	6763.453613
999.266602	6759.617188
998.121094	6589.941406
996.975586	6540.333984
995.829102	6532.189453
994.682617	6395.397949
993.536133	6409.090332
992.388672	6339.956055
991.241211	6475.670898
990.093750	6530.718750
988.945313	6474.669434
987.797852	6405.582520
986.649414	6423.599121
985.500000	6452.486328
984.351563	6474.831055
983.202148	6703.803223
982.051758	6658.659668
980.902344	6841.815430
979.751953	6933.591309
978.601563	6966.649414
977.451172	7214.764160
976.299805	7425.832520
975.148438	7821.363770
973.997070	8099.471680
972.844727	8505.490234
971.692383	9130.454102
970.540039	9844.046875
969.387695	10297.039063
968.234375	11489.152344
967.081055	12552.783203
965.927734	13292.986328
964.773438	14492.130859
963.619141	15335.449219
962.464844	16264.966797
961.310547	16810.824219
960.155273	17083.691406
959.000000	17237.406250
957.843750	16824.248047
956.688477	15855.454102
955.532227	15246.074219
954.375977	14390.559570
953.218750	13574.369141
952.061523	12605.178711
950.904297	12094.410156
949.747070	11264.279297
948.588867	10892.273438
947.430664	10334.821289
946.272461	9874.753906
945.113281	9268.210938
943.954102	8942.362305
942.794922	8715.866211
941.634766	8467.923828
940.475586	8183.465332
939.314453	7931.468262
938.154297	7933.787598
936.993164	7591.523926
935.832031	7596.077637
934.670898	7372.457520
933.508789	7151.101074
932.347656	7076.153320
931.184570	6882.941406
930.022461	6945.720703
928.859375	6864.427734
927.696289	6669.262207
926.533203	6641.796387
925.369141	6659.455566
924.205078	6647.037109
923.041016	6557.327148
921.875977	6598.603027
920.710938	6487.487305
919.545898	6374.281738
918.379883	6411.278809
917.214844	6437.533691
916.048828	6200.078125
914.881836	6249.947754
913.714844	6282.648438
912.547852	6167.516602
911.380859	6377.980469
910.213867	6224.339844
909.045898	6090.041504
907.876953	6148.416504
906.708984	6193.923340
905.540039	6147.429688
904.371094	6175.803711
903.201172	6056.647461
902.032227	6050.830078
900.862305	6126.213379
899.691406	6250.690918
898.521484	6157.261230
897.350586	6001.957520
896.178711	6073.002441
895.007813	6111.998535
893.835938	6255.516602
892.664063	6168.597656
891.491211	6233.125488
890.318359	6193.155762
889.145508	6172.387695
887.972656	6221.945801
886.798828	6199.048340
885.625000	6159.123535
884.451172	6259.743164
883.276367	6251.750000
882.101563	6282.065430
880.926758	6327.256348
879.750977	6410.708496
878.575195	6230.439453
877.399414	6281.982910
876.223633	6214.479492
875.046875	6270.248047
873.870117	6336.607422
872.692383	6294.623047
871.514648	6343.954102
870.336914	6301.986816
869.159180	6232.453613
867.980469	6319.945801
866.801758	6269.529785
865.623047	6441.780762
864.443359	6122.135742
863.263672	6211.680664
862.083984	6294.821289
860.904297	6255.061523
859.723633	6365.675293
858.542969	6364.023438
857.361328	6372.954102
856.179688	6506.723145
854.998047	6407.720703
853.816406	6444.123047
852.633789	6474.162109
851.451172	6373.127930
850.267578	6428.525879
849.084961	6460.654297
847.901367	6431.512207
846.716797	6431.946289
845.533203	6400.712891
844.348633	6441.251953
843.163086	6618.915039
841.978516	6469.526855
840.792969	6575.386230
839.606445	6626.373535
838.420898	6576.160645
837.234375	6656.618652
836.047852	6669.621094
834.860352	6583.628906
833.672852	6805.088379
832.485352	6584.384277
831.297852	6511.104980
830.109375	6383.161621
828.920898	6373.070313
827.731445	6432.374512
826.542969	6283.526855
825.353516	6204.110840
824.163086	6240.296875
822.972656	6387.791504
821.782227	6264.307129
820.591797	6229.063477
819.400391	6338.660645
818.208984	6464.985352
817.017578	6469.570313
815.825195	6564.332520
814.632813	6713.556641
813.440430	6764.183105
812.247070	6808.494629
811.054688	6831.830566
809.860352	6708.541504
808.666992	6673.259766
807.472656	6460.061523
806.277344	6441.604004
805.083008	6167.902832
803.887695	5940.362305
802.692383	6047.520996
801.496094	5941.383789
800.299805	5962.792480
799.103516	5821.211426
797.907227	5844.727051
796.709961	5958.027344
795.512695	5904.243164
794.314453	5942.324707
793.116211	5773.804688
791.917969	5780.606445
790.719727	5814.515625
789.520508	5865.085449
788.321289	5848.924805
787.121094	5726.494141
785.920898	5758.293457
784.720703	5762.998047
783.520508	5944.686523
782.319336	5712.029297
781.118164	5943.577148
779.916016	5750.572754
778.714844	5740.707520
777.511719	5732.925781
776.309570	5804.143066
775.106445	5829.598633
773.903320	5981.780762
772.700195	5890.850586
771.496094	5959.867188
770.291992	5941.651367
769.086914	5794.763672
767.882813	5867.895996
766.676758	5855.938965
765.471680	5812.879883
764.265625	5983.387207
763.059570	5927.878418
761.853516	5754.287109
760.646484	5928.811523
759.439453	5838.151367
758.231445	5944.230957
757.023438	5853.613770
755.815430	5800.291504
754.607422	5823.541016
753.398438	5917.095215
752.189453	5801.767090
750.979492	5777.450684
749.770508	5788.277344
748.560547	5708.195313
747.349609	5921.438965
746.138672	5810.389648
744.927734	5814.997559
743.716797	5782.455078
742.504883	5785.002441
741.292969	5851.486328
740.080078	5903.498535
738.867188	6040.000000
737.654297	5846.686035
736.440430	5801.818848
735.227539	5859.961914
734.012695	5782.166016
732.798828	5821.752930
731.583984	5813.980957
730.369141	5787.695313
729.153320	5740.853027
727.937500	5895.558105
726.721680	5858.988281
725.504883	5845.044922
724.288086	5829.053711
